#
# Results on Tue, 01 Aug 2023 17:37:24 GMT
# USER AGENT: Mozilla/5.0 (Macintosh; Intel Mac OS X 10_15_7) AppleWebKit/537.36 (KHTML, like Gecko) Chrome/114.0.0.0 Safari/537.36
# Design number was non-random = 5
#
# Columns below this comment are as follows:
# 1. Results reception time.
# 2. MD5 hash of participant's IP address.
# 3. Controller name.
# 4. Order number of item.
# 5. Inner element number.
# 6. Label.
# 7. Latin Square Group.
# 8. PennElementType.
# 9. PennElementName.
# 10. Parameter.
# 11. Value.
# 12. EventTime.
# 13. pilot.
# 14. Comments.
1690911444,143b3a7d4ff621394184c224c315eb43,PennController,2,0,intro,NULL,PennController,0,_Trial_,Start,1690910061907,1,NULL
1690911444,143b3a7d4ff621394184c224c315eb43,PennController,2,0,intro,NULL,PennController,0,_Header_,Start,1690910061907,1,NULL
1690911444,143b3a7d4ff621394184c224c315eb43,PennController,2,0,intro,NULL,PennController,0,_Header_,End,1690910061908,1,NULL
1690911444,143b3a7d4ff621394184c224c315eb43,PennController,2,0,intro,NULL,TextInput,Name,Final,joselyn,1690910136573,1,NULL
1690911444,143b3a7d4ff621394184c224c315eb43,PennController,2,0,intro,NULL,TextInput,Name,First,,1690910087114,1,j
1690911444,143b3a7d4ff621394184c224c315eb43,PennController,2,0,intro,NULL,TextInput,CoffeeType,Final,anything lol,1690910136573,1,NULL
1690911444,143b3a7d4ff621394184c224c315eb43,PennController,2,0,intro,NULL,TextInput,CoffeeType,First,,1690910093842,1,a
1690911444,143b3a7d4ff621394184c224c315eb43,PennController,2,0,intro,NULL,TextInput,Age,Final,26,1690910136573,1,NULL
1690911444,143b3a7d4ff621394184c224c315eb43,PennController,2,0,intro,NULL,TextInput,Age,First,,1690910096607,1,2
1690911444,143b3a7d4ff621394184c224c315eb43,PennController,2,0,intro,NULL,TextInput,Language,Final,English mostly,1690910136573,1,NULL
1690911444,143b3a7d4ff621394184c224c315eb43,PennController,2,0,intro,NULL,TextInput,Language,First,,1690910098737,1,Shift
1690911444,143b3a7d4ff621394184c224c315eb43,PennController,2,0,intro,NULL,PennController,0,_Trial_,End,1690910136574,1,NULL
1690911444,143b3a7d4ff621394184c224c315eb43,PennController,3,0,how-works,NULL,PennController,1,_Trial_,Start,1690910136577,1,NULL
1690911444,143b3a7d4ff621394184c224c315eb43,PennController,3,0,how-works,NULL,PennController,1,_Header_,Start,1690910136577,1,NULL
1690911444,143b3a7d4ff621394184c224c315eb43,PennController,3,0,how-works,NULL,PennController,1,_Header_,End,1690910136578,1,NULL
1690911444,143b3a7d4ff621394184c224c315eb43,PennController,3,0,how-works,NULL,PennController,1,_Trial_,End,1690910154580,1,NULL
1690911444,143b3a7d4ff621394184c224c315eb43,PennController,5,0,instruction1,NULL,PennController,3,_Trial_,Start,1690910154582,1,NULL
1690911444,143b3a7d4ff621394184c224c315eb43,PennController,5,0,instruction1,NULL,PennController,3,_Header_,Start,1690910154582,1,NULL
1690911444,143b3a7d4ff621394184c224c315eb43,PennController,5,0,instruction1,NULL,PennController,3,_Header_,End,1690910154582,1,NULL
1690911444,143b3a7d4ff621394184c224c315eb43,PennController,5,0,instruction1,NULL,PennController,3,_Trial_,End,1690910170542,1,NULL
1690911444,143b3a7d4ff621394184c224c315eb43,PennController,6,0,instruction2,NULL,PennController,4,_Trial_,Start,1690910170543,1,NULL
1690911444,143b3a7d4ff621394184c224c315eb43,PennController,6,0,instruction2,NULL,PennController,4,_Header_,Start,1690910170543,1,NULL
1690911444,143b3a7d4ff621394184c224c315eb43,PennController,6,0,instruction2,NULL,PennController,4,_Header_,End,1690910170543,1,NULL
1690911444,143b3a7d4ff621394184c224c315eb43,PennController,6,0,instruction2,NULL,TextInput,answer,EnterReturn,are expensive,1690910184307,1,NULL
1690911444,143b3a7d4ff621394184c224c315eb43,PennController,6,0,instruction2,NULL,PennController,4,_Trial_,End,1690910198067,1,NULL
1690911444,143b3a7d4ff621394184c224c315eb43,PennController,7,0,instruction3,NULL,PennController,5,_Trial_,Start,1690910198068,1,NULL
1690911444,143b3a7d4ff621394184c224c315eb43,PennController,7,0,instruction3,NULL,PennController,5,_Header_,Start,1690910198068,1,NULL
1690911444,143b3a7d4ff621394184c224c315eb43,PennController,7,0,instruction3,NULL,PennController,5,_Header_,End,1690910198069,1,NULL
1690911444,143b3a7d4ff621394184c224c315eb43,PennController,7,0,instruction3,NULL,TextInput,answer,EnterReturn,are interesting,1690910220028,1,NULL
1690911444,143b3a7d4ff621394184c224c315eb43,PennController,7,0,instruction3,NULL,PennController,5,_Trial_,End,1690910228435,1,NULL
# 14. Preamble.
# 15. Condition.
# 16. ItemNumber.
# 17. Comments.
1690911444,143b3a7d4ff621394184c224c315eb43,PennController,107,0,practice,NULL,PennController,107,_Trial_,Start,1690910228438,1,What would happen if,practice,3,NULL
1690911444,143b3a7d4ff621394184c224c315eb43,PennController,107,0,practice,NULL,PennController,107,_Header_,Start,1690910228438,1,What would happen if,practice,3,NULL
1690911444,143b3a7d4ff621394184c224c315eb43,PennController,107,0,practice,NULL,PennController,107,_Header_,End,1690910228439,1,What would happen if,practice,3,NULL
1690911444,143b3a7d4ff621394184c224c315eb43,PennController,107,0,practice,NULL,TextInput,answer,EnterReturn,i quit my job,1690910232802,1,What would happen if,practice,3,NULL
1690911444,143b3a7d4ff621394184c224c315eb43,PennController,107,0,practice,NULL,PennController,107,_Trial_,End,1690910232804,1,What would happen if,practice,3,NULL
1690911444,143b3a7d4ff621394184c224c315eb43,PennController,106,0,practice,NULL,PennController,106,_Trial_,Start,1690910232805,1,Even though multiverse stories,practice,2,NULL
1690911444,143b3a7d4ff621394184c224c315eb43,PennController,106,0,practice,NULL,PennController,106,_Header_,Start,1690910232805,1,Even though multiverse stories,practice,2,NULL
1690911444,143b3a7d4ff621394184c224c315eb43,PennController,106,0,practice,NULL,PennController,106,_Header_,End,1690910232805,1,Even though multiverse stories,practice,2,NULL
1690911444,143b3a7d4ff621394184c224c315eb43,PennController,106,0,practice,NULL,TextInput,answer,EnterReturn,are common nowadays%2C it's getting old.,1690910243594,1,Even though multiverse stories,practice,2,NULL
1690911444,143b3a7d4ff621394184c224c315eb43,PennController,106,0,practice,NULL,PennController,106,_Trial_,End,1690910243595,1,Even though multiverse stories,practice,2,NULL
1690911444,143b3a7d4ff621394184c224c315eb43,PennController,108,0,practice,NULL,PennController,108,_Trial_,Start,1690910243596,1,The studious kids were,practice,4,NULL
1690911444,143b3a7d4ff621394184c224c315eb43,PennController,108,0,practice,NULL,PennController,108,_Header_,Start,1690910243596,1,The studious kids were,practice,4,NULL
1690911444,143b3a7d4ff621394184c224c315eb43,PennController,108,0,practice,NULL,PennController,108,_Header_,End,1690910243596,1,The studious kids were,practice,4,NULL
1690911444,143b3a7d4ff621394184c224c315eb43,PennController,108,0,practice,NULL,TextInput,answer,EnterReturn,reading in the library,1690910253023,1,The studious kids were,practice,4,NULL
1690911444,143b3a7d4ff621394184c224c315eb43,PennController,108,0,practice,NULL,PennController,108,_Trial_,End,1690910253024,1,The studious kids were,practice,4,NULL
1690911444,143b3a7d4ff621394184c224c315eb43,PennController,105,0,practice,NULL,PennController,105,_Trial_,Start,1690910253026,1,Spicy pickles are,practice,1,NULL
1690911444,143b3a7d4ff621394184c224c315eb43,PennController,105,0,practice,NULL,PennController,105,_Header_,Start,1690910253026,1,Spicy pickles are,practice,1,NULL
1690911444,143b3a7d4ff621394184c224c315eb43,PennController,105,0,practice,NULL,PennController,105,_Header_,End,1690910253026,1,Spicy pickles are,practice,1,NULL
1690911444,143b3a7d4ff621394184c224c315eb43,PennController,105,0,practice,NULL,TextInput,answer,EnterReturn,delicious,1690910256348,1,Spicy pickles are,practice,1,NULL
1690911444,143b3a7d4ff621394184c224c315eb43,PennController,105,0,practice,NULL,TextInput,answer,EnterReturn,a delicious side-dish,1690910264182,1,Spicy pickles are,practice,1,NULL
1690911444,143b3a7d4ff621394184c224c315eb43,PennController,105,0,practice,NULL,PennController,105,_Trial_,End,1690910264183,1,Spicy pickles are,practice,1,NULL
1690911444,143b3a7d4ff621394184c224c315eb43,PennController,109,0,practice,NULL,PennController,109,_Trial_,Start,1690910264184,1,The soundtrack of the movie Dune,practice,5,NULL
1690911444,143b3a7d4ff621394184c224c315eb43,PennController,109,0,practice,NULL,PennController,109,_Header_,Start,1690910264184,1,The soundtrack of the movie Dune,practice,5,NULL
1690911444,143b3a7d4ff621394184c224c315eb43,PennController,109,0,practice,NULL,PennController,109,_Header_,End,1690910264184,1,The soundtrack of the movie Dune,practice,5,NULL
1690911444,143b3a7d4ff621394184c224c315eb43,PennController,109,0,practice,NULL,TextInput,answer,EnterReturn,is pretty epic,1690910268152,1,The soundtrack of the movie Dune,practice,5,NULL
1690911444,143b3a7d4ff621394184c224c315eb43,PennController,109,0,practice,NULL,PennController,109,_Trial_,End,1690910268152,1,The soundtrack of the movie Dune,practice,5,NULL
1690911444,143b3a7d4ff621394184c224c315eb43,PennController,110,0,practice,NULL,PennController,110,_Trial_,Start,1690910268153,1,Facebook used to be,practice,6,NULL
1690911444,143b3a7d4ff621394184c224c315eb43,PennController,110,0,practice,NULL,PennController,110,_Header_,Start,1690910268153,1,Facebook used to be,practice,6,NULL
1690911444,143b3a7d4ff621394184c224c315eb43,PennController,110,0,practice,NULL,PennController,110,_Header_,End,1690910268153,1,Facebook used to be,practice,6,NULL
1690911444,143b3a7d4ff621394184c224c315eb43,PennController,110,0,practice,NULL,TextInput,answer,EnterReturn,a place of community,1690910273696,1,Facebook used to be,practice,6,NULL
1690911444,143b3a7d4ff621394184c224c315eb43,PennController,110,0,practice,NULL,PennController,110,_Trial_,End,1690910273697,1,Facebook used to be,practice,6,NULL
1690911444,143b3a7d4ff621394184c224c315eb43,PennController,111,0,practice,NULL,PennController,111,_Trial_,Start,1690910273699,1,The new restaurant,practice,7,NULL
1690911444,143b3a7d4ff621394184c224c315eb43,PennController,111,0,practice,NULL,PennController,111,_Header_,Start,1690910273699,1,The new restaurant,practice,7,NULL
1690911444,143b3a7d4ff621394184c224c315eb43,PennController,111,0,practice,NULL,PennController,111,_Header_,End,1690910273699,1,The new restaurant,practice,7,NULL
1690911444,143b3a7d4ff621394184c224c315eb43,PennController,111,0,practice,NULL,TextInput,answer,EnterReturn,has great reviews apparently,1690910278728,1,The new restaurant,practice,7,NULL
1690911444,143b3a7d4ff621394184c224c315eb43,PennController,111,0,practice,NULL,PennController,111,_Trial_,End,1690910278729,1,The new restaurant,practice,7,NULL
# 14. Comments.
1690911444,143b3a7d4ff621394184c224c315eb43,PennController,8,0,warn,NULL,PennController,6,_Trial_,Start,1690910278730,1,NULL
1690911444,143b3a7d4ff621394184c224c315eb43,PennController,8,0,warn,NULL,PennController,6,_Header_,Start,1690910278730,1,NULL
1690911444,143b3a7d4ff621394184c224c315eb43,PennController,8,0,warn,NULL,PennController,6,_Header_,End,1690910278730,1,NULL
1690911444,143b3a7d4ff621394184c224c315eb43,PennController,8,0,warn,NULL,PennController,6,_Trial_,End,1690910308597,1,NULL
# 14. Preamble.
# 15. Condition.
# 16. FillerType.
# 17. ItemNumber.
# 18. Comments.
1690911444,143b3a7d4ff621394184c224c315eb43,PennController,90,0,filler,NULL,PennController,90,_Trial_,Start,1690910308598,1,Most vivid dreams%2C which transported them to fantastical realms%2C,filler,quantifier,50,NULL
1690911444,143b3a7d4ff621394184c224c315eb43,PennController,90,0,filler,NULL,PennController,90,_Header_,Start,1690910308598,1,Most vivid dreams%2C which transported them to fantastical realms%2C,filler,quantifier,50,NULL
1690911444,143b3a7d4ff621394184c224c315eb43,PennController,90,0,filler,NULL,PennController,90,_Header_,End,1690910308598,1,Most vivid dreams%2C which transported them to fantastical realms%2C,filler,quantifier,50,NULL
1690911444,143b3a7d4ff621394184c224c315eb43,PennController,90,0,filler,NULL,TextInput,answer,EnterReturn,were written in her diary,1690910325568,1,Most vivid dreams%2C which transported them to fantastical realms%2C,filler,quantifier,50,NULL
1690911444,143b3a7d4ff621394184c224c315eb43,PennController,90,0,filler,NULL,PennController,90,_Trial_,End,1690910325569,1,Most vivid dreams%2C which transported them to fantastical realms%2C,filler,quantifier,50,NULL
1690911444,143b3a7d4ff621394184c224c315eb43,PennController,103,0,filler,NULL,PennController,103,_Trial_,Start,1690910325571,1,Whoever was responsible,filler,correlative,63,NULL
1690911444,143b3a7d4ff621394184c224c315eb43,PennController,103,0,filler,NULL,PennController,103,_Header_,Start,1690910325571,1,Whoever was responsible,filler,correlative,63,NULL
1690911444,143b3a7d4ff621394184c224c315eb43,PennController,103,0,filler,NULL,PennController,103,_Header_,End,1690910325571,1,Whoever was responsible,filler,correlative,63,NULL
1690911444,143b3a7d4ff621394184c224c315eb43,PennController,103,0,filler,NULL,TextInput,answer,EnterReturn,needs to speak up,1690910335751,1,Whoever was responsible,filler,correlative,63,NULL
1690911444,143b3a7d4ff621394184c224c315eb43,PennController,103,0,filler,NULL,PennController,103,_Trial_,End,1690910335752,1,Whoever was responsible,filler,correlative,63,NULL
# 16. ItemNumber.
# 17. Is_definite.
# 18. Is_modified.
# 19. Is_coordinated.
# 20. Comments.
1690911444,143b3a7d4ff621394184c224c315eb43,PennController,12,0,trial,NULL,PennController,12,_Trial_,Start,1690910335753,1,The broad rivers and the cheery rooms,theAdjBPand,4,TRUE,TRUE,TRUE,NULL
1690911444,143b3a7d4ff621394184c224c315eb43,PennController,12,0,trial,NULL,PennController,12,_Header_,Start,1690910335753,1,The broad rivers and the cheery rooms,theAdjBPand,4,TRUE,TRUE,TRUE,NULL
1690911444,143b3a7d4ff621394184c224c315eb43,PennController,12,0,trial,NULL,PennController,12,_Header_,End,1690910335753,1,The broad rivers and the cheery rooms,theAdjBPand,4,TRUE,TRUE,TRUE,NULL
1690911444,143b3a7d4ff621394184c224c315eb43,PennController,12,0,trial,NULL,TextInput,answer,EnterReturn,reminded him of his youth,1690910347303,1,The broad rivers and the cheery rooms,theAdjBPand,4,TRUE,TRUE,TRUE,NULL
1690911444,143b3a7d4ff621394184c224c315eb43,PennController,12,0,trial,NULL,PennController,12,_Trial_,End,1690910347303,1,The broad rivers and the cheery rooms,theAdjBPand,4,TRUE,TRUE,TRUE,NULL
# 16. FillerType.
# 17. ItemNumber.
# 18. Comments.
1690911444,143b3a7d4ff621394184c224c315eb43,PennController,48,0,filler,NULL,PennController,48,_Trial_,Start,1690910347304,1,The movie that mesmerized audiences with its breathtaking visuals,filler,rc,8,NULL
1690911444,143b3a7d4ff621394184c224c315eb43,PennController,48,0,filler,NULL,PennController,48,_Header_,Start,1690910347304,1,The movie that mesmerized audiences with its breathtaking visuals,filler,rc,8,NULL
1690911444,143b3a7d4ff621394184c224c315eb43,PennController,48,0,filler,NULL,PennController,48,_Header_,End,1690910347305,1,The movie that mesmerized audiences with its breathtaking visuals,filler,rc,8,NULL
1690911444,143b3a7d4ff621394184c224c315eb43,PennController,48,0,filler,NULL,TextInput,answer,EnterReturn,was too long,1690910356926,1,The movie that mesmerized audiences with its breathtaking visuals,filler,rc,8,NULL
1690911444,143b3a7d4ff621394184c224c315eb43,PennController,48,0,filler,NULL,PennController,48,_Trial_,End,1690910356927,1,The movie that mesmerized audiences with its breathtaking visuals,filler,rc,8,NULL
1690911444,143b3a7d4ff621394184c224c315eb43,PennController,85,0,filler,NULL,PennController,85,_Trial_,Start,1690910356927,1,Most challenges,filler,quantifier,45,NULL
1690911444,143b3a7d4ff621394184c224c315eb43,PennController,85,0,filler,NULL,PennController,85,_Header_,Start,1690910356927,1,Most challenges,filler,quantifier,45,NULL
1690911444,143b3a7d4ff621394184c224c315eb43,PennController,85,0,filler,NULL,PennController,85,_Header_,End,1690910356927,1,Most challenges,filler,quantifier,45,NULL
1690911444,143b3a7d4ff621394184c224c315eb43,PennController,85,0,filler,NULL,TextInput,answer,EnterReturn,are better faced with friends,1690910366722,1,Most challenges,filler,quantifier,45,NULL
1690911444,143b3a7d4ff621394184c224c315eb43,PennController,85,0,filler,NULL,PennController,85,_Trial_,End,1690910366722,1,Most challenges,filler,quantifier,45,NULL
# 16. ItemNumber.
# 17. Is_definite.
# 18. Is_modified.
# 19. Is_coordinated.
# 20. Comments.
1690911444,143b3a7d4ff621394184c224c315eb43,PennController,33,0,trial,NULL,PennController,33,_Trial_,Start,1690910366724,1,The answers and the diamonds,theBPand,25,TRUE,FALSE,TRUE,NULL
1690911444,143b3a7d4ff621394184c224c315eb43,PennController,33,0,trial,NULL,PennController,33,_Header_,Start,1690910366724,1,The answers and the diamonds,theBPand,25,TRUE,FALSE,TRUE,NULL
1690911444,143b3a7d4ff621394184c224c315eb43,PennController,33,0,trial,NULL,PennController,33,_Header_,End,1690910366724,1,The answers and the diamonds,theBPand,25,TRUE,FALSE,TRUE,NULL
1690911444,143b3a7d4ff621394184c224c315eb43,PennController,33,0,trial,NULL,TextInput,answer,EnterReturn,were not enough to convince her,1690910377517,1,The answers and the diamonds,theBPand,25,TRUE,FALSE,TRUE,NULL
1690911444,143b3a7d4ff621394184c224c315eb43,PennController,33,0,trial,NULL,PennController,33,_Trial_,End,1690910377518,1,The answers and the diamonds,theBPand,25,TRUE,FALSE,TRUE,NULL
# 16. FillerType.
# 17. ItemNumber.
# 18. Comments.
1690911444,143b3a7d4ff621394184c224c315eb43,PennController,46,0,filler,NULL,PennController,46,_Trial_,Start,1690910377519,1,The city that buzzed with vibrant energy day and night,filler,rc,6,NULL
1690911444,143b3a7d4ff621394184c224c315eb43,PennController,46,0,filler,NULL,PennController,46,_Header_,Start,1690910377519,1,The city that buzzed with vibrant energy day and night,filler,rc,6,NULL
1690911444,143b3a7d4ff621394184c224c315eb43,PennController,46,0,filler,NULL,PennController,46,_Header_,End,1690910377519,1,The city that buzzed with vibrant energy day and night,filler,rc,6,NULL
1690911444,143b3a7d4ff621394184c224c315eb43,PennController,46,0,filler,NULL,TextInput,answer,EnterReturn,was suddenly dead during the pandemic,1690910389099,1,The city that buzzed with vibrant energy day and night,filler,rc,6,NULL
1690911444,143b3a7d4ff621394184c224c315eb43,PennController,46,0,filler,NULL,PennController,46,_Trial_,End,1690910389099,1,The city that buzzed with vibrant energy day and night,filler,rc,6,NULL
1690911444,143b3a7d4ff621394184c224c315eb43,PennController,97,0,filler,NULL,PennController,97,_Trial_,Start,1690910389100,1,Were I to be the mayor of College Park%2C,filler,if,57,NULL
1690911444,143b3a7d4ff621394184c224c315eb43,PennController,97,0,filler,NULL,PennController,97,_Header_,Start,1690910389100,1,Were I to be the mayor of College Park%2C,filler,if,57,NULL
1690911444,143b3a7d4ff621394184c224c315eb43,PennController,97,0,filler,NULL,PennController,97,_Header_,End,1690910389101,1,Were I to be the mayor of College Park%2C,filler,if,57,NULL
1690911444,143b3a7d4ff621394184c224c315eb43,PennController,97,0,filler,NULL,TextInput,answer,EnterReturn,i would fix the damn roads,1690910394839,1,Were I to be the mayor of College Park%2C,filler,if,57,NULL
1690911444,143b3a7d4ff621394184c224c315eb43,PennController,97,0,filler,NULL,PennController,97,_Trial_,End,1690910394840,1,Were I to be the mayor of College Park%2C,filler,if,57,NULL
# 16. ItemNumber.
# 17. Is_definite.
# 18. Is_modified.
# 19. Is_coordinated.
# 20. Comments.
1690911444,143b3a7d4ff621394184c224c315eb43,PennController,24,0,trial,NULL,PennController,24,_Trial_,Start,1690910394842,1,Kings and games,BPand,16,FALSE,FALSE,TRUE,NULL
1690911444,143b3a7d4ff621394184c224c315eb43,PennController,24,0,trial,NULL,PennController,24,_Header_,Start,1690910394842,1,Kings and games,BPand,16,FALSE,FALSE,TRUE,NULL
1690911444,143b3a7d4ff621394184c224c315eb43,PennController,24,0,trial,NULL,PennController,24,_Header_,End,1690910394842,1,Kings and games,BPand,16,FALSE,FALSE,TRUE,NULL
1690911444,143b3a7d4ff621394184c224c315eb43,PennController,24,0,trial,NULL,PennController,24,_Trial_,End,1690910420350,1,Kings and games,BPand,16,FALSE,FALSE,TRUE,NULL
# 16. FillerType.
# 17. ItemNumber.
# 18. Comments.
1690911444,143b3a7d4ff621394184c224c315eb43,PennController,63,0,filler,NULL,PennController,63,_Trial_,Start,1690910420354,1,Within the serene garden oasis,filler,adjunct,23,NULL
1690911444,143b3a7d4ff621394184c224c315eb43,PennController,63,0,filler,NULL,PennController,63,_Header_,Start,1690910420354,1,Within the serene garden oasis,filler,adjunct,23,NULL
1690911444,143b3a7d4ff621394184c224c315eb43,PennController,63,0,filler,NULL,PennController,63,_Header_,End,1690910420354,1,Within the serene garden oasis,filler,adjunct,23,NULL
1690911444,143b3a7d4ff621394184c224c315eb43,PennController,63,0,filler,NULL,TextInput,answer,EnterReturn,he saw the princess,1690910426142,1,Within the serene garden oasis,filler,adjunct,23,NULL
1690911444,143b3a7d4ff621394184c224c315eb43,PennController,63,0,filler,NULL,PennController,63,_Trial_,End,1690910426142,1,Within the serene garden oasis,filler,adjunct,23,NULL
1690911444,143b3a7d4ff621394184c224c315eb43,PennController,81,0,filler,NULL,PennController,81,_Trial_,Start,1690910426143,1,All stars,filler,quantifier,41,NULL
1690911444,143b3a7d4ff621394184c224c315eb43,PennController,81,0,filler,NULL,PennController,81,_Header_,Start,1690910426143,1,All stars,filler,quantifier,41,NULL
1690911444,143b3a7d4ff621394184c224c315eb43,PennController,81,0,filler,NULL,PennController,81,_Header_,End,1690910426143,1,All stars,filler,quantifier,41,NULL
1690911444,143b3a7d4ff621394184c224c315eb43,PennController,81,0,filler,NULL,TextInput,answer,EnterReturn,twinkle but planets don'tt,1690910435131,1,All stars,filler,quantifier,41,NULL
1690911444,143b3a7d4ff621394184c224c315eb43,PennController,81,0,filler,NULL,PennController,81,_Trial_,End,1690910435132,1,All stars,filler,quantifier,41,NULL
# 16. ItemNumber.
# 17. Is_definite.
# 18. Is_modified.
# 19. Is_coordinated.
# 20. Comments.
1690911444,143b3a7d4ff621394184c224c315eb43,PennController,10,0,trial,NULL,PennController,10,_Trial_,Start,1690910435133,1,The cozy tables,theAdjBP,2,TRUE,TRUE,FALSE,NULL
1690911444,143b3a7d4ff621394184c224c315eb43,PennController,10,0,trial,NULL,PennController,10,_Header_,Start,1690910435133,1,The cozy tables,theAdjBP,2,TRUE,TRUE,FALSE,NULL
1690911444,143b3a7d4ff621394184c224c315eb43,PennController,10,0,trial,NULL,PennController,10,_Header_,End,1690910435133,1,The cozy tables,theAdjBP,2,TRUE,TRUE,FALSE,NULL
1690911444,143b3a7d4ff621394184c224c315eb43,PennController,10,0,trial,NULL,TextInput,answer,EnterReturn,were made from oak,1690910441157,1,The cozy tables,theAdjBP,2,TRUE,TRUE,FALSE,NULL
1690911444,143b3a7d4ff621394184c224c315eb43,PennController,10,0,trial,NULL,PennController,10,_Trial_,End,1690910441158,1,The cozy tables,theAdjBP,2,TRUE,TRUE,FALSE,NULL
# 16. FillerType.
# 17. ItemNumber.
# 18. Comments.
1690911444,143b3a7d4ff621394184c224c315eb43,PennController,101,0,filler,NULL,PennController,101,_Trial_,Start,1690910441159,1,Whatever happened,filler,correlative,61,NULL
1690911444,143b3a7d4ff621394184c224c315eb43,PennController,101,0,filler,NULL,PennController,101,_Header_,Start,1690910441159,1,Whatever happened,filler,correlative,61,NULL
1690911444,143b3a7d4ff621394184c224c315eb43,PennController,101,0,filler,NULL,PennController,101,_Header_,End,1690910441159,1,Whatever happened,filler,correlative,61,NULL
1690911444,143b3a7d4ff621394184c224c315eb43,PennController,101,0,filler,NULL,TextInput,answer,EnterReturn,to that guy that lives down the street,1690910452848,1,Whatever happened,filler,correlative,61,NULL
1690911444,143b3a7d4ff621394184c224c315eb43,PennController,101,0,filler,NULL,PennController,101,_Trial_,End,1690910452849,1,Whatever happened,filler,correlative,61,NULL
1690911444,143b3a7d4ff621394184c224c315eb43,PennController,83,0,filler,NULL,PennController,83,_Trial_,Start,1690910452851,1,Few opportunities,filler,quantifier,43,NULL
1690911444,143b3a7d4ff621394184c224c315eb43,PennController,83,0,filler,NULL,PennController,83,_Header_,Start,1690910452851,1,Few opportunities,filler,quantifier,43,NULL
1690911444,143b3a7d4ff621394184c224c315eb43,PennController,83,0,filler,NULL,PennController,83,_Header_,End,1690910452851,1,Few opportunities,filler,quantifier,43,NULL
1690911444,143b3a7d4ff621394184c224c315eb43,PennController,83,0,filler,NULL,TextInput,answer,EnterReturn,arise without putting yourself out there,1690910464693,1,Few opportunities,filler,quantifier,43,NULL
1690911444,143b3a7d4ff621394184c224c315eb43,PennController,83,0,filler,NULL,PennController,83,_Trial_,End,1690910464694,1,Few opportunities,filler,quantifier,43,NULL
# 16. ItemNumber.
# 17. Is_definite.
# 18. Is_modified.
# 19. Is_coordinated.
# 20. Comments.
1690911444,143b3a7d4ff621394184c224c315eb43,PennController,38,0,trial,NULL,PennController,38,_Trial_,Start,1690910464695,1,Dinners,BP,30,FALSE,FALSE,FALSE,NULL
1690911444,143b3a7d4ff621394184c224c315eb43,PennController,38,0,trial,NULL,PennController,38,_Header_,Start,1690910464695,1,Dinners,BP,30,FALSE,FALSE,FALSE,NULL
1690911444,143b3a7d4ff621394184c224c315eb43,PennController,38,0,trial,NULL,PennController,38,_Header_,End,1690910464695,1,Dinners,BP,30,FALSE,FALSE,FALSE,NULL
1690911444,143b3a7d4ff621394184c224c315eb43,PennController,38,0,trial,NULL,TextInput,answer,EnterReturn,are served every weeknight,1690910476415,1,Dinners,BP,30,FALSE,FALSE,FALSE,NULL
1690911444,143b3a7d4ff621394184c224c315eb43,PennController,38,0,trial,NULL,PennController,38,_Trial_,End,1690910476415,1,Dinners,BP,30,FALSE,FALSE,FALSE,NULL
# 16. FillerType.
# 17. ItemNumber.
# 18. Comments.
1690911444,143b3a7d4ff621394184c224c315eb43,PennController,78,0,filler,NULL,PennController,78,_Trial_,Start,1690910476416,1,What to do after,filler,wh,38,NULL
1690911444,143b3a7d4ff621394184c224c315eb43,PennController,78,0,filler,NULL,PennController,78,_Header_,Start,1690910476416,1,What to do after,filler,wh,38,NULL
1690911444,143b3a7d4ff621394184c224c315eb43,PennController,78,0,filler,NULL,PennController,78,_Header_,End,1690910476416,1,What to do after,filler,wh,38,NULL
1690911444,143b3a7d4ff621394184c224c315eb43,PennController,78,0,filler,NULL,TextInput,answer,EnterReturn,you finish school is the perennial challenge,1690910488106,1,What to do after,filler,wh,38,NULL
1690911444,143b3a7d4ff621394184c224c315eb43,PennController,78,0,filler,NULL,PennController,78,_Trial_,End,1690910488106,1,What to do after,filler,wh,38,NULL
1690911444,143b3a7d4ff621394184c224c315eb43,PennController,82,0,filler,NULL,PennController,82,_Trial_,Start,1690910488108,1,Some dreams,filler,quantifier,42,NULL
1690911444,143b3a7d4ff621394184c224c315eb43,PennController,82,0,filler,NULL,PennController,82,_Header_,Start,1690910488108,1,Some dreams,filler,quantifier,42,NULL
1690911444,143b3a7d4ff621394184c224c315eb43,PennController,82,0,filler,NULL,PennController,82,_Header_,End,1690910488108,1,Some dreams,filler,quantifier,42,NULL
1690911444,143b3a7d4ff621394184c224c315eb43,PennController,82,0,filler,NULL,TextInput,answer,EnterReturn,are achievable if you try,1690910496294,1,Some dreams,filler,quantifier,42,NULL
1690911444,143b3a7d4ff621394184c224c315eb43,PennController,82,0,filler,NULL,PennController,82,_Trial_,End,1690910496295,1,Some dreams,filler,quantifier,42,NULL
# 16. ItemNumber.
# 17. Is_definite.
# 18. Is_modified.
# 19. Is_coordinated.
# 20. Comments.
1690911444,143b3a7d4ff621394184c224c315eb43,PennController,11,0,trial,NULL,PennController,11,_Trial_,Start,1690910496296,1,The doors,theBP,3,TRUE,FALSE,FALSE,NULL
1690911444,143b3a7d4ff621394184c224c315eb43,PennController,11,0,trial,NULL,PennController,11,_Header_,Start,1690910496296,1,The doors,theBP,3,TRUE,FALSE,FALSE,NULL
1690911444,143b3a7d4ff621394184c224c315eb43,PennController,11,0,trial,NULL,PennController,11,_Header_,End,1690910496296,1,The doors,theBP,3,TRUE,FALSE,FALSE,NULL
1690911444,143b3a7d4ff621394184c224c315eb43,PennController,11,0,trial,NULL,TextInput,answer,EnterReturn,are open,1690910501828,1,The doors,theBP,3,TRUE,FALSE,FALSE,NULL
1690911444,143b3a7d4ff621394184c224c315eb43,PennController,11,0,trial,NULL,TextInput,answer,EnterReturn,opened before her,1690910507487,1,The doors,theBP,3,TRUE,FALSE,FALSE,NULL
1690911444,143b3a7d4ff621394184c224c315eb43,PennController,11,0,trial,NULL,PennController,11,_Trial_,End,1690910507488,1,The doors,theBP,3,TRUE,FALSE,FALSE,NULL
# 16. FillerType.
# 17. ItemNumber.
# 18. Comments.
1690911444,143b3a7d4ff621394184c224c315eb43,PennController,84,0,filler,NULL,PennController,84,_Trial_,Start,1690910507490,1,Many voices,filler,quantifier,44,NULL
1690911444,143b3a7d4ff621394184c224c315eb43,PennController,84,0,filler,NULL,PennController,84,_Header_,Start,1690910507490,1,Many voices,filler,quantifier,44,NULL
1690911444,143b3a7d4ff621394184c224c315eb43,PennController,84,0,filler,NULL,PennController,84,_Header_,End,1690910507490,1,Many voices,filler,quantifier,44,NULL
1690911444,143b3a7d4ff621394184c224c315eb43,PennController,84,0,filler,NULL,TextInput,answer,EnterReturn,were heard coming from inside the room,1690910513653,1,Many voices,filler,quantifier,44,NULL
1690911444,143b3a7d4ff621394184c224c315eb43,PennController,84,0,filler,NULL,PennController,84,_Trial_,End,1690910513654,1,Many voices,filler,quantifier,44,NULL
1690911444,143b3a7d4ff621394184c224c315eb43,PennController,51,0,filler,NULL,PennController,51,_Trial_,Start,1690910513654,1,Sarah and John%2C,filler,name,11,NULL
1690911444,143b3a7d4ff621394184c224c315eb43,PennController,51,0,filler,NULL,PennController,51,_Header_,Start,1690910513654,1,Sarah and John%2C,filler,name,11,NULL
1690911444,143b3a7d4ff621394184c224c315eb43,PennController,51,0,filler,NULL,PennController,51,_Header_,End,1690910513654,1,Sarah and John%2C,filler,name,11,NULL
1690911444,143b3a7d4ff621394184c224c315eb43,PennController,51,0,filler,NULL,PennController,51,_Trial_,End,1690910539155,1,Sarah and John%2C,filler,name,11,NULL
# 16. ItemNumber.
# 17. Is_definite.
# 18. Is_modified.
# 19. Is_coordinated.
# 20. Comments.
1690911444,143b3a7d4ff621394184c224c315eb43,PennController,13,0,trial,NULL,PennController,13,_Trial_,Start,1690910539156,1,Steamy mirrors and blissful journeys,AdjBPand,5,FALSE,TRUE,TRUE,NULL
1690911444,143b3a7d4ff621394184c224c315eb43,PennController,13,0,trial,NULL,PennController,13,_Header_,Start,1690910539156,1,Steamy mirrors and blissful journeys,AdjBPand,5,FALSE,TRUE,TRUE,NULL
1690911444,143b3a7d4ff621394184c224c315eb43,PennController,13,0,trial,NULL,PennController,13,_Header_,End,1690910539156,1,Steamy mirrors and blissful journeys,AdjBPand,5,FALSE,TRUE,TRUE,NULL
1690911444,143b3a7d4ff621394184c224c315eb43,PennController,13,0,trial,NULL,TextInput,answer,EnterReturn,are what you'd expect of an adventure,1690910552157,1,Steamy mirrors and blissful journeys,AdjBPand,5,FALSE,TRUE,TRUE,NULL
1690911444,143b3a7d4ff621394184c224c315eb43,PennController,13,0,trial,NULL,PennController,13,_Trial_,End,1690910552158,1,Steamy mirrors and blissful journeys,AdjBPand,5,FALSE,TRUE,TRUE,NULL
# 16. FillerType.
# 17. ItemNumber.
# 18. Comments.
1690911444,143b3a7d4ff621394184c224c315eb43,PennController,43,0,filler,NULL,PennController,43,_Trial_,Start,1690910552159,1,The dog that barked incessantly,filler,rc,3,NULL
1690911444,143b3a7d4ff621394184c224c315eb43,PennController,43,0,filler,NULL,PennController,43,_Header_,Start,1690910552159,1,The dog that barked incessantly,filler,rc,3,NULL
1690911444,143b3a7d4ff621394184c224c315eb43,PennController,43,0,filler,NULL,PennController,43,_Header_,End,1690910552160,1,The dog that barked incessantly,filler,rc,3,NULL
1690911444,143b3a7d4ff621394184c224c315eb43,PennController,43,0,filler,NULL,TextInput,answer,EnterReturn,was suddenly quiet one night,1690910565347,1,The dog that barked incessantly,filler,rc,3,NULL
1690911444,143b3a7d4ff621394184c224c315eb43,PennController,43,0,filler,NULL,PennController,43,_Trial_,End,1690910565348,1,The dog that barked incessantly,filler,rc,3,NULL
1690911444,143b3a7d4ff621394184c224c315eb43,PennController,53,0,filler,NULL,PennController,53,_Trial_,Start,1690910565349,1,The Smith family,filler,name,13,NULL
1690911444,143b3a7d4ff621394184c224c315eb43,PennController,53,0,filler,NULL,PennController,53,_Header_,Start,1690910565349,1,The Smith family,filler,name,13,NULL
1690911444,143b3a7d4ff621394184c224c315eb43,PennController,53,0,filler,NULL,PennController,53,_Header_,End,1690910565349,1,The Smith family,filler,name,13,NULL
1690911444,143b3a7d4ff621394184c224c315eb43,PennController,53,0,filler,NULL,TextInput,answer,EnterReturn,is a normal family to mos,1690910574936,1,The Smith family,filler,name,13,NULL
1690911444,143b3a7d4ff621394184c224c315eb43,PennController,53,0,filler,NULL,PennController,53,_Trial_,End,1690910574937,1,The Smith family,filler,name,13,NULL
# 16. ItemNumber.
# 17. Is_definite.
# 18. Is_modified.
# 19. Is_coordinated.
# 20. Comments.
1690911444,143b3a7d4ff621394184c224c315eb43,PennController,35,0,trial,NULL,PennController,35,_Trial_,Start,1690910574938,1,The guns,theBP,27,TRUE,FALSE,FALSE,NULL
1690911444,143b3a7d4ff621394184c224c315eb43,PennController,35,0,trial,NULL,PennController,35,_Header_,Start,1690910574938,1,The guns,theBP,27,TRUE,FALSE,FALSE,NULL
1690911444,143b3a7d4ff621394184c224c315eb43,PennController,35,0,trial,NULL,PennController,35,_Header_,End,1690910574938,1,The guns,theBP,27,TRUE,FALSE,FALSE,NULL
1690911444,143b3a7d4ff621394184c224c315eb43,PennController,35,0,trial,NULL,TextInput,answer,EnterReturn,were on the table in front of them,1690910585125,1,The guns,theBP,27,TRUE,FALSE,FALSE,NULL
1690911444,143b3a7d4ff621394184c224c315eb43,PennController,35,0,trial,NULL,PennController,35,_Trial_,End,1690910585126,1,The guns,theBP,27,TRUE,FALSE,FALSE,NULL
# 16. FillerType.
# 17. ItemNumber.
# 18. Comments.
1690911444,143b3a7d4ff621394184c224c315eb43,PennController,56,0,filler,NULL,PennController,56,_Trial_,Start,1690910585126,1,The dynamic duo of Lucy and Max ,filler,name,16,NULL
1690911444,143b3a7d4ff621394184c224c315eb43,PennController,56,0,filler,NULL,PennController,56,_Header_,Start,1690910585126,1,The dynamic duo of Lucy and Max ,filler,name,16,NULL
1690911444,143b3a7d4ff621394184c224c315eb43,PennController,56,0,filler,NULL,PennController,56,_Header_,End,1690910585126,1,The dynamic duo of Lucy and Max ,filler,name,16,NULL
1690911444,143b3a7d4ff621394184c224c315eb43,PennController,56,0,filler,NULL,TextInput,answer,EnterReturn,is always chaoic,1690910593852,1,The dynamic duo of Lucy and Max ,filler,name,16,NULL
1690911444,143b3a7d4ff621394184c224c315eb43,PennController,56,0,filler,NULL,PennController,56,_Trial_,End,1690910593853,1,The dynamic duo of Lucy and Max ,filler,name,16,NULL
1690911444,143b3a7d4ff621394184c224c315eb43,PennController,80,0,filler,NULL,PennController,80,_Trial_,Start,1690910593854,1,What if you dare,filler,wh,40,NULL
1690911444,143b3a7d4ff621394184c224c315eb43,PennController,80,0,filler,NULL,PennController,80,_Header_,Start,1690910593854,1,What if you dare,filler,wh,40,NULL
1690911444,143b3a7d4ff621394184c224c315eb43,PennController,80,0,filler,NULL,PennController,80,_Header_,End,1690910593854,1,What if you dare,filler,wh,40,NULL
1690911444,143b3a7d4ff621394184c224c315eb43,PennController,80,0,filler,NULL,TextInput,answer,EnterReturn,to speak before the queen,1690910602061,1,What if you dare,filler,wh,40,NULL
1690911444,143b3a7d4ff621394184c224c315eb43,PennController,80,0,filler,NULL,PennController,80,_Trial_,End,1690910602061,1,What if you dare,filler,wh,40,NULL
# 16. ItemNumber.
# 17. Is_definite.
# 18. Is_modified.
# 19. Is_coordinated.
# 20. Comments.
1690911444,143b3a7d4ff621394184c224c315eb43,PennController,19,0,trial,NULL,PennController,19,_Trial_,Start,1690910602062,1,The leggings,theBP,11,TRUE,FALSE,FALSE,NULL
1690911444,143b3a7d4ff621394184c224c315eb43,PennController,19,0,trial,NULL,PennController,19,_Header_,Start,1690910602062,1,The leggings,theBP,11,TRUE,FALSE,FALSE,NULL
1690911444,143b3a7d4ff621394184c224c315eb43,PennController,19,0,trial,NULL,PennController,19,_Header_,End,1690910602062,1,The leggings,theBP,11,TRUE,FALSE,FALSE,NULL
1690911444,143b3a7d4ff621394184c224c315eb43,PennController,19,0,trial,NULL,TextInput,answer,EnterReturn,were on sale so i bought them,1690910607875,1,The leggings,theBP,11,TRUE,FALSE,FALSE,NULL
1690911444,143b3a7d4ff621394184c224c315eb43,PennController,19,0,trial,NULL,PennController,19,_Trial_,End,1690910607877,1,The leggings,theBP,11,TRUE,FALSE,FALSE,NULL
# 16. FillerType.
# 17. ItemNumber.
# 18. Comments.
1690911444,143b3a7d4ff621394184c224c315eb43,PennController,102,0,filler,NULL,PennController,102,_Trial_,Start,1690910607877,1,Wherever the party was,filler,correlative,62,NULL
1690911444,143b3a7d4ff621394184c224c315eb43,PennController,102,0,filler,NULL,PennController,102,_Header_,Start,1690910607877,1,Wherever the party was,filler,correlative,62,NULL
1690911444,143b3a7d4ff621394184c224c315eb43,PennController,102,0,filler,NULL,PennController,102,_Header_,End,1690910607877,1,Wherever the party was,filler,correlative,62,NULL
1690911444,143b3a7d4ff621394184c224c315eb43,PennController,102,0,filler,NULL,TextInput,answer,EnterReturn,for didn't even show up,1690910614956,1,Wherever the party was,filler,correlative,62,NULL
1690911444,143b3a7d4ff621394184c224c315eb43,PennController,102,0,filler,NULL,PennController,102,_Trial_,End,1690910614957,1,Wherever the party was,filler,correlative,62,NULL
1690911444,143b3a7d4ff621394184c224c315eb43,PennController,99,0,filler,NULL,PennController,99,_Trial_,Start,1690910614959,1,Were I to save someone from the past%2C,filler,if,59,NULL
1690911444,143b3a7d4ff621394184c224c315eb43,PennController,99,0,filler,NULL,PennController,99,_Header_,Start,1690910614959,1,Were I to save someone from the past%2C,filler,if,59,NULL
1690911444,143b3a7d4ff621394184c224c315eb43,PennController,99,0,filler,NULL,PennController,99,_Header_,End,1690910614959,1,Were I to save someone from the past%2C,filler,if,59,NULL
1690911444,143b3a7d4ff621394184c224c315eb43,PennController,99,0,filler,NULL,TextInput,answer,EnterReturn,it would make for a good story,1690910638332,1,Were I to save someone from the past%2C,filler,if,59,NULL
1690911444,143b3a7d4ff621394184c224c315eb43,PennController,99,0,filler,NULL,PennController,99,_Trial_,End,1690910638333,1,Were I to save someone from the past%2C,filler,if,59,NULL
# 16. ItemNumber.
# 17. Is_definite.
# 18. Is_modified.
# 19. Is_coordinated.
# 20. Comments.
1690911444,143b3a7d4ff621394184c224c315eb43,PennController,21,0,trial,NULL,PennController,21,_Trial_,Start,1690910638335,1,Unlucky astronauts and ominous stories,AdjBPand,13,FALSE,TRUE,TRUE,NULL
1690911444,143b3a7d4ff621394184c224c315eb43,PennController,21,0,trial,NULL,PennController,21,_Header_,Start,1690910638335,1,Unlucky astronauts and ominous stories,AdjBPand,13,FALSE,TRUE,TRUE,NULL
1690911444,143b3a7d4ff621394184c224c315eb43,PennController,21,0,trial,NULL,PennController,21,_Header_,End,1690910638335,1,Unlucky astronauts and ominous stories,AdjBPand,13,FALSE,TRUE,TRUE,NULL
1690911444,143b3a7d4ff621394184c224c315eb43,PennController,21,0,trial,NULL,TextInput,answer,EnterReturn,go hand in hand,1690910646474,1,Unlucky astronauts and ominous stories,AdjBPand,13,FALSE,TRUE,TRUE,NULL
1690911444,143b3a7d4ff621394184c224c315eb43,PennController,21,0,trial,NULL,PennController,21,_Trial_,End,1690910646474,1,Unlucky astronauts and ominous stories,AdjBPand,13,FALSE,TRUE,TRUE,NULL
# 16. FillerType.
# 17. ItemNumber.
# 18. Comments.
1690911444,143b3a7d4ff621394184c224c315eb43,PennController,59,0,filler,NULL,PennController,59,_Trial_,Start,1690910646476,1,Jake%2C Lisa%2C and Alex ,filler,name,19,NULL
1690911444,143b3a7d4ff621394184c224c315eb43,PennController,59,0,filler,NULL,PennController,59,_Header_,Start,1690910646476,1,Jake%2C Lisa%2C and Alex ,filler,name,19,NULL
1690911444,143b3a7d4ff621394184c224c315eb43,PennController,59,0,filler,NULL,PennController,59,_Header_,End,1690910646476,1,Jake%2C Lisa%2C and Alex ,filler,name,19,NULL
1690911444,143b3a7d4ff621394184c224c315eb43,PennController,59,0,filler,NULL,TextInput,answer,EnterReturn,are an unseparable trio,1690910658485,1,Jake%2C Lisa%2C and Alex ,filler,name,19,NULL
1690911444,143b3a7d4ff621394184c224c315eb43,PennController,59,0,filler,NULL,PennController,59,_Trial_,End,1690910658486,1,Jake%2C Lisa%2C and Alex ,filler,name,19,NULL
1690911444,143b3a7d4ff621394184c224c315eb43,PennController,95,0,filler,NULL,PennController,95,_Trial_,Start,1690910658487,1,If the world was ruled by cats%2C,filler,if,55,NULL
1690911444,143b3a7d4ff621394184c224c315eb43,PennController,95,0,filler,NULL,PennController,95,_Header_,Start,1690910658487,1,If the world was ruled by cats%2C,filler,if,55,NULL
1690911444,143b3a7d4ff621394184c224c315eb43,PennController,95,0,filler,NULL,PennController,95,_Header_,End,1690910658487,1,If the world was ruled by cats%2C,filler,if,55,NULL
1690911444,143b3a7d4ff621394184c224c315eb43,PennController,95,0,filler,NULL,TextInput,answer,EnterReturn,it would be a free-for-all,1690910681180,1,If the world was ruled by cats%2C,filler,if,55,NULL
1690911444,143b3a7d4ff621394184c224c315eb43,PennController,95,0,filler,NULL,PennController,95,_Trial_,End,1690910681181,1,If the world was ruled by cats%2C,filler,if,55,NULL
# 16. ItemNumber.
# 17. Is_definite.
# 18. Is_modified.
# 19. Is_coordinated.
# 20. Comments.
1690911444,143b3a7d4ff621394184c224c315eb43,PennController,30,0,trial,NULL,PennController,30,_Trial_,Start,1690910681184,1,Rugs,BP,22,FALSE,FALSE,FALSE,NULL
1690911444,143b3a7d4ff621394184c224c315eb43,PennController,30,0,trial,NULL,PennController,30,_Header_,Start,1690910681184,1,Rugs,BP,22,FALSE,FALSE,FALSE,NULL
1690911444,143b3a7d4ff621394184c224c315eb43,PennController,30,0,trial,NULL,PennController,30,_Header_,End,1690910681184,1,Rugs,BP,22,FALSE,FALSE,FALSE,NULL
1690911444,143b3a7d4ff621394184c224c315eb43,PennController,30,0,trial,NULL,TextInput,answer,EnterReturn,%2C when good quality%2C are quite expensive,1690910691063,1,Rugs,BP,22,FALSE,FALSE,FALSE,NULL
1690911444,143b3a7d4ff621394184c224c315eb43,PennController,30,0,trial,NULL,PennController,30,_Trial_,End,1690910691064,1,Rugs,BP,22,FALSE,FALSE,FALSE,NULL
# 16. FillerType.
# 17. ItemNumber.
# 18. Comments.
1690911444,143b3a7d4ff621394184c224c315eb43,PennController,69,0,filler,NULL,PennController,69,_Trial_,Start,1690910691066,1,Underneath the trees,filler,adjunct,29,NULL
1690911444,143b3a7d4ff621394184c224c315eb43,PennController,69,0,filler,NULL,PennController,69,_Header_,Start,1690910691066,1,Underneath the trees,filler,adjunct,29,NULL
1690911444,143b3a7d4ff621394184c224c315eb43,PennController,69,0,filler,NULL,PennController,69,_Header_,End,1690910691066,1,Underneath the trees,filler,adjunct,29,NULL
1690911444,143b3a7d4ff621394184c224c315eb43,PennController,69,0,filler,NULL,TextInput,answer,EnterReturn,sat the young girl,1690910697800,1,Underneath the trees,filler,adjunct,29,NULL
1690911444,143b3a7d4ff621394184c224c315eb43,PennController,69,0,filler,NULL,PennController,69,_Trial_,End,1690910697801,1,Underneath the trees,filler,adjunct,29,NULL
1690911444,143b3a7d4ff621394184c224c315eb43,PennController,96,0,filler,NULL,PennController,96,_Trial_,Start,1690910697802,1,If I could travel back in time%2C it would be the time when,filler,if,56,NULL
1690911444,143b3a7d4ff621394184c224c315eb43,PennController,96,0,filler,NULL,PennController,96,_Header_,Start,1690910697802,1,If I could travel back in time%2C it would be the time when,filler,if,56,NULL
1690911444,143b3a7d4ff621394184c224c315eb43,PennController,96,0,filler,NULL,PennController,96,_Header_,End,1690910697802,1,If I could travel back in time%2C it would be the time when,filler,if,56,NULL
1690911444,143b3a7d4ff621394184c224c315eb43,PennController,96,0,filler,NULL,TextInput,answer,EnterReturn,i was happiesttt,1690910711131,1,If I could travel back in time%2C it would be the time when,filler,if,56,NULL
1690911444,143b3a7d4ff621394184c224c315eb43,PennController,96,0,filler,NULL,PennController,96,_Trial_,End,1690910711132,1,If I could travel back in time%2C it would be the time when,filler,if,56,NULL
# 16. ItemNumber.
# 17. Is_definite.
# 18. Is_modified.
# 19. Is_coordinated.
# 20. Comments.
1690911444,143b3a7d4ff621394184c224c315eb43,PennController,22,0,trial,NULL,PennController,22,_Trial_,Start,1690910711133,1,Ponds,BP,14,FALSE,FALSE,FALSE,NULL
1690911444,143b3a7d4ff621394184c224c315eb43,PennController,22,0,trial,NULL,PennController,22,_Header_,Start,1690910711133,1,Ponds,BP,14,FALSE,FALSE,FALSE,NULL
1690911444,143b3a7d4ff621394184c224c315eb43,PennController,22,0,trial,NULL,PennController,22,_Header_,End,1690910711133,1,Ponds,BP,14,FALSE,FALSE,FALSE,NULL
1690911444,143b3a7d4ff621394184c224c315eb43,PennController,22,0,trial,NULL,TextInput,answer,EnterReturn,are a beautiful place to have a picnic b y,1690910725109,1,Ponds,BP,14,FALSE,FALSE,FALSE,NULL
1690911444,143b3a7d4ff621394184c224c315eb43,PennController,22,0,trial,NULL,PennController,22,_Trial_,End,1690910725110,1,Ponds,BP,14,FALSE,FALSE,FALSE,NULL
# 16. FillerType.
# 17. ItemNumber.
# 18. Comments.
1690911444,143b3a7d4ff621394184c224c315eb43,PennController,42,0,filler,NULL,PennController,42,_Trial_,Start,1690910725110,1,The book that kept me up all night,filler,rc,2,NULL
1690911444,143b3a7d4ff621394184c224c315eb43,PennController,42,0,filler,NULL,PennController,42,_Header_,Start,1690910725110,1,The book that kept me up all night,filler,rc,2,NULL
1690911444,143b3a7d4ff621394184c224c315eb43,PennController,42,0,filler,NULL,PennController,42,_Header_,End,1690910725110,1,The book that kept me up all night,filler,rc,2,NULL
1690911444,143b3a7d4ff621394184c224c315eb43,PennController,42,0,filler,NULL,TextInput,answer,EnterReturn,is on this shelf here,1690910738356,1,The book that kept me up all night,filler,rc,2,NULL
1690911444,143b3a7d4ff621394184c224c315eb43,PennController,42,0,filler,NULL,PennController,42,_Trial_,End,1690910738357,1,The book that kept me up all night,filler,rc,2,NULL
1690911444,143b3a7d4ff621394184c224c315eb43,PennController,75,0,filler,NULL,PennController,75,_Trial_,Start,1690910738357,1,Who is behind the mask,filler,wh,35,NULL
1690911444,143b3a7d4ff621394184c224c315eb43,PennController,75,0,filler,NULL,PennController,75,_Header_,Start,1690910738357,1,Who is behind the mask,filler,wh,35,NULL
1690911444,143b3a7d4ff621394184c224c315eb43,PennController,75,0,filler,NULL,PennController,75,_Header_,End,1690910738357,1,Who is behind the mask,filler,wh,35,NULL
1690911444,143b3a7d4ff621394184c224c315eb43,PennController,75,0,filler,NULL,PennController,75,_Trial_,End,1690910763861,1,Who is behind the mask,filler,wh,35,NULL
# 16. ItemNumber.
# 17. Is_definite.
# 18. Is_modified.
# 19. Is_coordinated.
# 20. Comments.
1690911444,143b3a7d4ff621394184c224c315eb43,PennController,32,0,trial,NULL,PennController,32,_Trial_,Start,1690910763863,1,Newspapers and students,BPand,24,FALSE,FALSE,TRUE,NULL
1690911444,143b3a7d4ff621394184c224c315eb43,PennController,32,0,trial,NULL,PennController,32,_Header_,Start,1690910763863,1,Newspapers and students,BPand,24,FALSE,FALSE,TRUE,NULL
1690911444,143b3a7d4ff621394184c224c315eb43,PennController,32,0,trial,NULL,PennController,32,_Header_,End,1690910763863,1,Newspapers and students,BPand,24,FALSE,FALSE,TRUE,NULL
1690911444,143b3a7d4ff621394184c224c315eb43,PennController,32,0,trial,NULL,PennController,32,_Trial_,End,1690910789386,1,Newspapers and students,BPand,24,FALSE,FALSE,TRUE,NULL
# 16. FillerType.
# 17. ItemNumber.
# 18. Comments.
1690911444,143b3a7d4ff621394184c224c315eb43,PennController,98,0,filler,NULL,PennController,98,_Trial_,Start,1690910789391,1,Were I to open a bakery shop%2C,filler,if,58,NULL
1690911444,143b3a7d4ff621394184c224c315eb43,PennController,98,0,filler,NULL,PennController,98,_Header_,Start,1690910789391,1,Were I to open a bakery shop%2C,filler,if,58,NULL
1690911444,143b3a7d4ff621394184c224c315eb43,PennController,98,0,filler,NULL,PennController,98,_Header_,End,1690910789391,1,Were I to open a bakery shop%2C,filler,if,58,NULL
1690911444,143b3a7d4ff621394184c224c315eb43,PennController,98,0,filler,NULL,TextInput,answer,EnterReturn,it would have the best croissants,1690910806213,1,Were I to open a bakery shop%2C,filler,if,58,NULL
1690911444,143b3a7d4ff621394184c224c315eb43,PennController,98,0,filler,NULL,PennController,98,_Trial_,End,1690910806214,1,Were I to open a bakery shop%2C,filler,if,58,NULL
1690911444,143b3a7d4ff621394184c224c315eb43,PennController,77,0,filler,NULL,PennController,77,_Trial_,Start,1690910806215,1,Whose coffee,filler,wh,37,NULL
1690911444,143b3a7d4ff621394184c224c315eb43,PennController,77,0,filler,NULL,PennController,77,_Header_,Start,1690910806215,1,Whose coffee,filler,wh,37,NULL
1690911444,143b3a7d4ff621394184c224c315eb43,PennController,77,0,filler,NULL,PennController,77,_Header_,End,1690910806215,1,Whose coffee,filler,wh,37,NULL
1690911444,143b3a7d4ff621394184c224c315eb43,PennController,77,0,filler,NULL,TextInput,answer,EnterReturn,is this that was left on the table,1690910817142,1,Whose coffee,filler,wh,37,NULL
1690911444,143b3a7d4ff621394184c224c315eb43,PennController,77,0,filler,NULL,PennController,77,_Trial_,End,1690910817145,1,Whose coffee,filler,wh,37,NULL
# 16. ItemNumber.
# 17. Is_definite.
# 18. Is_modified.
# 19. Is_coordinated.
# 20. Comments.
1690911444,143b3a7d4ff621394184c224c315eb43,PennController,18,0,trial,NULL,PennController,18,_Trial_,Start,1690910817146,1,The familiar headaches,theAdjBP,10,TRUE,TRUE,FALSE,NULL
1690911444,143b3a7d4ff621394184c224c315eb43,PennController,18,0,trial,NULL,PennController,18,_Header_,Start,1690910817146,1,The familiar headaches,theAdjBP,10,TRUE,TRUE,FALSE,NULL
1690911444,143b3a7d4ff621394184c224c315eb43,PennController,18,0,trial,NULL,PennController,18,_Header_,End,1690910817146,1,The familiar headaches,theAdjBP,10,TRUE,TRUE,FALSE,NULL
1690911444,143b3a7d4ff621394184c224c315eb43,PennController,18,0,trial,NULL,TextInput,answer,EnterReturn,plagued her yet again,1690910823360,1,The familiar headaches,theAdjBP,10,TRUE,TRUE,FALSE,NULL
1690911444,143b3a7d4ff621394184c224c315eb43,PennController,18,0,trial,NULL,PennController,18,_Trial_,End,1690910823360,1,The familiar headaches,theAdjBP,10,TRUE,TRUE,FALSE,NULL
# 16. FillerType.
# 17. ItemNumber.
# 18. Comments.
1690911444,143b3a7d4ff621394184c224c315eb43,PennController,66,0,filler,NULL,PennController,66,_Trial_,Start,1690910823362,1,In the misty mountain valley,filler,adjunct,26,NULL
1690911444,143b3a7d4ff621394184c224c315eb43,PennController,66,0,filler,NULL,PennController,66,_Header_,Start,1690910823362,1,In the misty mountain valley,filler,adjunct,26,NULL
1690911444,143b3a7d4ff621394184c224c315eb43,PennController,66,0,filler,NULL,PennController,66,_Header_,End,1690910823362,1,In the misty mountain valley,filler,adjunct,26,NULL
1690911444,143b3a7d4ff621394184c224c315eb43,PennController,66,0,filler,NULL,TextInput,answer,EnterReturn,lived an old grandfather and his granddaughter,1690910837415,1,In the misty mountain valley,filler,adjunct,26,NULL
1690911444,143b3a7d4ff621394184c224c315eb43,PennController,66,0,filler,NULL,PennController,66,_Trial_,End,1690910837416,1,In the misty mountain valley,filler,adjunct,26,NULL
1690911444,143b3a7d4ff621394184c224c315eb43,PennController,104,0,filler,NULL,PennController,104,_Trial_,Start,1690910837418,1,Whichever path they chose,filler,correlative,64,NULL
1690911444,143b3a7d4ff621394184c224c315eb43,PennController,104,0,filler,NULL,PennController,104,_Header_,Start,1690910837418,1,Whichever path they chose,filler,correlative,64,NULL
1690911444,143b3a7d4ff621394184c224c315eb43,PennController,104,0,filler,NULL,PennController,104,_Header_,End,1690910837418,1,Whichever path they chose,filler,correlative,64,NULL
1690911444,143b3a7d4ff621394184c224c315eb43,PennController,104,0,filler,NULL,TextInput,answer,EnterReturn,is the one that they must follow,1690910846309,1,Whichever path they chose,filler,correlative,64,NULL
1690911444,143b3a7d4ff621394184c224c315eb43,PennController,104,0,filler,NULL,PennController,104,_Trial_,End,1690910846310,1,Whichever path they chose,filler,correlative,64,NULL
# 16. ItemNumber.
# 17. Is_definite.
# 18. Is_modified.
# 19. Is_coordinated.
# 20. Comments.
1690911444,143b3a7d4ff621394184c224c315eb43,PennController,36,0,trial,NULL,PennController,36,_Trial_,Start,1690910846311,1,The flat towns and the fiendish mosquitos,theAdjBPand,28,TRUE,TRUE,TRUE,NULL
1690911444,143b3a7d4ff621394184c224c315eb43,PennController,36,0,trial,NULL,PennController,36,_Header_,Start,1690910846311,1,The flat towns and the fiendish mosquitos,theAdjBPand,28,TRUE,TRUE,TRUE,NULL
1690911444,143b3a7d4ff621394184c224c315eb43,PennController,36,0,trial,NULL,PennController,36,_Header_,End,1690910846311,1,The flat towns and the fiendish mosquitos,theAdjBPand,28,TRUE,TRUE,TRUE,NULL
1690911444,143b3a7d4ff621394184c224c315eb43,PennController,36,0,trial,NULL,TextInput,answer,EnterReturn,made for a hellish vacation,1690910855515,1,The flat towns and the fiendish mosquitos,theAdjBPand,28,TRUE,TRUE,TRUE,NULL
1690911444,143b3a7d4ff621394184c224c315eb43,PennController,36,0,trial,NULL,PennController,36,_Trial_,End,1690910855515,1,The flat towns and the fiendish mosquitos,theAdjBPand,28,TRUE,TRUE,TRUE,NULL
# 16. FillerType.
# 17. ItemNumber.
# 18. Comments.
1690911444,143b3a7d4ff621394184c224c315eb43,PennController,64,0,filler,NULL,PennController,64,_Trial_,Start,1690910855516,1,During a starry summer night,filler,adjunct,24,NULL
1690911444,143b3a7d4ff621394184c224c315eb43,PennController,64,0,filler,NULL,PennController,64,_Header_,Start,1690910855516,1,During a starry summer night,filler,adjunct,24,NULL
1690911444,143b3a7d4ff621394184c224c315eb43,PennController,64,0,filler,NULL,PennController,64,_Header_,End,1690910855516,1,During a starry summer night,filler,adjunct,24,NULL
1690911444,143b3a7d4ff621394184c224c315eb43,PennController,64,0,filler,NULL,TextInput,answer,EnterReturn,they sat watching the sky,1690910866074,1,During a starry summer night,filler,adjunct,24,NULL
1690911444,143b3a7d4ff621394184c224c315eb43,PennController,64,0,filler,NULL,PennController,64,_Trial_,End,1690910866075,1,During a starry summer night,filler,adjunct,24,NULL
1690911444,143b3a7d4ff621394184c224c315eb43,PennController,41,0,filler,NULL,PennController,41,_Trial_,Start,1690910866076,1,The car that raced through the streets,filler,rc,1,NULL
1690911444,143b3a7d4ff621394184c224c315eb43,PennController,41,0,filler,NULL,PennController,41,_Header_,Start,1690910866076,1,The car that raced through the streets,filler,rc,1,NULL
1690911444,143b3a7d4ff621394184c224c315eb43,PennController,41,0,filler,NULL,PennController,41,_Header_,End,1690910866077,1,The car that raced through the streets,filler,rc,1,NULL
1690911444,143b3a7d4ff621394184c224c315eb43,PennController,41,0,filler,NULL,TextInput,answer,EnterReturn,was definitely stolen,1690910874181,1,The car that raced through the streets,filler,rc,1,NULL
1690911444,143b3a7d4ff621394184c224c315eb43,PennController,41,0,filler,NULL,PennController,41,_Trial_,End,1690910874182,1,The car that raced through the streets,filler,rc,1,NULL
# 16. ItemNumber.
# 17. Is_definite.
# 18. Is_modified.
# 19. Is_coordinated.
# 20. Comments.
1690911444,143b3a7d4ff621394184c224c315eb43,PennController,15,0,trial,NULL,PennController,15,_Trial_,Start,1690910874183,1,Pale monuments,AdjBP,7,FALSE,TRUE,FALSE,NULL
1690911444,143b3a7d4ff621394184c224c315eb43,PennController,15,0,trial,NULL,PennController,15,_Header_,Start,1690910874183,1,Pale monuments,AdjBP,7,FALSE,TRUE,FALSE,NULL
1690911444,143b3a7d4ff621394184c224c315eb43,PennController,15,0,trial,NULL,PennController,15,_Header_,End,1690910874183,1,Pale monuments,AdjBP,7,FALSE,TRUE,FALSE,NULL
1690911444,143b3a7d4ff621394184c224c315eb43,PennController,15,0,trial,NULL,TextInput,answer,EnterReturn,dotted the town,1690910896786,1,Pale monuments,AdjBP,7,FALSE,TRUE,FALSE,NULL
1690911444,143b3a7d4ff621394184c224c315eb43,PennController,15,0,trial,NULL,PennController,15,_Trial_,End,1690910896787,1,Pale monuments,AdjBP,7,FALSE,TRUE,FALSE,NULL
# 16. FillerType.
# 17. ItemNumber.
# 18. Comments.
1690911444,143b3a7d4ff621394184c224c315eb43,PennController,71,0,filler,NULL,PennController,71,_Trial_,Start,1690910896788,1,Who holds the key,filler,wh,31,NULL
1690911444,143b3a7d4ff621394184c224c315eb43,PennController,71,0,filler,NULL,PennController,71,_Header_,Start,1690910896788,1,Who holds the key,filler,wh,31,NULL
1690911444,143b3a7d4ff621394184c224c315eb43,PennController,71,0,filler,NULL,PennController,71,_Header_,End,1690910896788,1,Who holds the key,filler,wh,31,NULL
1690911444,143b3a7d4ff621394184c224c315eb43,PennController,71,0,filler,NULL,TextInput,answer,EnterReturn,holds the power,1690910901349,1,Who holds the key,filler,wh,31,NULL
1690911444,143b3a7d4ff621394184c224c315eb43,PennController,71,0,filler,NULL,PennController,71,_Trial_,End,1690910901350,1,Who holds the key,filler,wh,31,NULL
1690911444,143b3a7d4ff621394184c224c315eb43,PennController,92,0,filler,NULL,PennController,92,_Trial_,Start,1690910901351,1,If sentient robots roamed the Earth%2C,filler,if,52,NULL
1690911444,143b3a7d4ff621394184c224c315eb43,PennController,92,0,filler,NULL,PennController,92,_Header_,Start,1690910901351,1,If sentient robots roamed the Earth%2C,filler,if,52,NULL
1690911444,143b3a7d4ff621394184c224c315eb43,PennController,92,0,filler,NULL,PennController,92,_Header_,End,1690910901351,1,If sentient robots roamed the Earth%2C,filler,if,52,NULL
1690911444,143b3a7d4ff621394184c224c315eb43,PennController,92,0,filler,NULL,TextInput,answer,EnterReturn,i really wouldn't be surprised,1690910909718,1,If sentient robots roamed the Earth%2C,filler,if,52,NULL
1690911444,143b3a7d4ff621394184c224c315eb43,PennController,92,0,filler,NULL,PennController,92,_Trial_,End,1690910909719,1,If sentient robots roamed the Earth%2C,filler,if,52,NULL
# 16. ItemNumber.
# 17. Is_definite.
# 18. Is_modified.
# 19. Is_coordinated.
# 20. Comments.
1690911444,143b3a7d4ff621394184c224c315eb43,PennController,25,0,trial,NULL,PennController,25,_Trial_,Start,1690910909720,1,The sketches and the pans,theBPand,17,TRUE,FALSE,TRUE,NULL
1690911444,143b3a7d4ff621394184c224c315eb43,PennController,25,0,trial,NULL,PennController,25,_Header_,Start,1690910909720,1,The sketches and the pans,theBPand,17,TRUE,FALSE,TRUE,NULL
1690911444,143b3a7d4ff621394184c224c315eb43,PennController,25,0,trial,NULL,PennController,25,_Header_,End,1690910909720,1,The sketches and the pans,theBPand,17,TRUE,FALSE,TRUE,NULL
1690911444,143b3a7d4ff621394184c224c315eb43,PennController,25,0,trial,NULL,TextInput,answer,EnterReturn,were strewn across the messy room,1690910920467,1,The sketches and the pans,theBPand,17,TRUE,FALSE,TRUE,NULL
1690911444,143b3a7d4ff621394184c224c315eb43,PennController,25,0,trial,NULL,PennController,25,_Trial_,End,1690910920468,1,The sketches and the pans,theBPand,17,TRUE,FALSE,TRUE,NULL
# 16. FillerType.
# 17. ItemNumber.
# 18. Comments.
1690911444,143b3a7d4ff621394184c224c315eb43,PennController,65,0,filler,NULL,PennController,65,_Trial_,Start,1690910920469,1,Along the road,filler,adjunct,25,NULL
1690911444,143b3a7d4ff621394184c224c315eb43,PennController,65,0,filler,NULL,PennController,65,_Header_,Start,1690910920469,1,Along the road,filler,adjunct,25,NULL
1690911444,143b3a7d4ff621394184c224c315eb43,PennController,65,0,filler,NULL,PennController,65,_Header_,End,1690910920469,1,Along the road,filler,adjunct,25,NULL
1690911444,143b3a7d4ff621394184c224c315eb43,PennController,65,0,filler,NULL,TextInput,answer,EnterReturn,were flowers of all different colors,1690910929035,1,Along the road,filler,adjunct,25,NULL
1690911444,143b3a7d4ff621394184c224c315eb43,PennController,65,0,filler,NULL,PennController,65,_Trial_,End,1690910929036,1,Along the road,filler,adjunct,25,NULL
1690911444,143b3a7d4ff621394184c224c315eb43,PennController,67,0,filler,NULL,PennController,67,_Trial_,Start,1690910929037,1,At the bustling market square,filler,adjunct,27,NULL
1690911444,143b3a7d4ff621394184c224c315eb43,PennController,67,0,filler,NULL,PennController,67,_Header_,Start,1690910929037,1,At the bustling market square,filler,adjunct,27,NULL
1690911444,143b3a7d4ff621394184c224c315eb43,PennController,67,0,filler,NULL,PennController,67,_Header_,End,1690910929037,1,At the bustling market square,filler,adjunct,27,NULL
1690911444,143b3a7d4ff621394184c224c315eb43,PennController,67,0,filler,NULL,TextInput,answer,EnterReturn,i saw some flowers for sale,1690910938205,1,At the bustling market square,filler,adjunct,27,NULL
1690911444,143b3a7d4ff621394184c224c315eb43,PennController,67,0,filler,NULL,PennController,67,_Trial_,End,1690910938206,1,At the bustling market square,filler,adjunct,27,NULL
# 16. ItemNumber.
# 17. Is_definite.
# 18. Is_modified.
# 19. Is_coordinated.
# 20. Comments.
1690911444,143b3a7d4ff621394184c224c315eb43,PennController,39,0,trial,NULL,PennController,39,_Trial_,Start,1690910938207,1,Gorgeous flowers,AdjBP,31,FALSE,TRUE,FALSE,NULL
1690911444,143b3a7d4ff621394184c224c315eb43,PennController,39,0,trial,NULL,PennController,39,_Header_,Start,1690910938207,1,Gorgeous flowers,AdjBP,31,FALSE,TRUE,FALSE,NULL
1690911444,143b3a7d4ff621394184c224c315eb43,PennController,39,0,trial,NULL,PennController,39,_Header_,End,1690910938207,1,Gorgeous flowers,AdjBP,31,FALSE,TRUE,FALSE,NULL
1690911444,143b3a7d4ff621394184c224c315eb43,PennController,39,0,trial,NULL,TextInput,answer,EnterReturn,lined the sides of the mountain road,1690910949901,1,Gorgeous flowers,AdjBP,31,FALSE,TRUE,FALSE,NULL
1690911444,143b3a7d4ff621394184c224c315eb43,PennController,39,0,trial,NULL,PennController,39,_Trial_,End,1690910949902,1,Gorgeous flowers,AdjBP,31,FALSE,TRUE,FALSE,NULL
# 16. FillerType.
# 17. ItemNumber.
# 18. Comments.
1690911444,143b3a7d4ff621394184c224c315eb43,PennController,79,0,filler,NULL,PennController,79,_Trial_,Start,1690910949904,1,How can we mend,filler,wh,39,NULL
1690911444,143b3a7d4ff621394184c224c315eb43,PennController,79,0,filler,NULL,PennController,79,_Header_,Start,1690910949904,1,How can we mend,filler,wh,39,NULL
1690911444,143b3a7d4ff621394184c224c315eb43,PennController,79,0,filler,NULL,PennController,79,_Header_,End,1690910949904,1,How can we mend,filler,wh,39,NULL
1690911444,143b3a7d4ff621394184c224c315eb43,PennController,79,0,filler,NULL,TextInput,answer,EnterReturn,this shirt when it's been so torn apar,1690910956959,1,How can we mend,filler,wh,39,NULL
1690911444,143b3a7d4ff621394184c224c315eb43,PennController,79,0,filler,NULL,PennController,79,_Trial_,End,1690910956959,1,How can we mend,filler,wh,39,NULL
1690911444,143b3a7d4ff621394184c224c315eb43,PennController,58,0,filler,NULL,PennController,58,_Trial_,Start,1690910956961,1,The Johnson siblings%2C Ethan and Olivia ,filler,name,18,NULL
1690911444,143b3a7d4ff621394184c224c315eb43,PennController,58,0,filler,NULL,PennController,58,_Header_,Start,1690910956961,1,The Johnson siblings%2C Ethan and Olivia ,filler,name,18,NULL
1690911444,143b3a7d4ff621394184c224c315eb43,PennController,58,0,filler,NULL,PennController,58,_Header_,End,1690910956961,1,The Johnson siblings%2C Ethan and Olivia ,filler,name,18,NULL
1690911444,143b3a7d4ff621394184c224c315eb43,PennController,58,0,filler,NULL,TextInput,answer,EnterReturn,were known for causing trouble,1690910962838,1,The Johnson siblings%2C Ethan and Olivia ,filler,name,18,NULL
1690911444,143b3a7d4ff621394184c224c315eb43,PennController,58,0,filler,NULL,PennController,58,_Trial_,End,1690910962839,1,The Johnson siblings%2C Ethan and Olivia ,filler,name,18,NULL
# 16. ItemNumber.
# 17. Is_definite.
# 18. Is_modified.
# 19. Is_coordinated.
# 20. Comments.
1690911444,143b3a7d4ff621394184c224c315eb43,PennController,9,0,trial,NULL,PennController,9,_Trial_,Start,1690910962839,1,The stains and the scissors,theBPand,1,TRUE,FALSE,TRUE,NULL
1690911444,143b3a7d4ff621394184c224c315eb43,PennController,9,0,trial,NULL,PennController,9,_Header_,Start,1690910962839,1,The stains and the scissors,theBPand,1,TRUE,FALSE,TRUE,NULL
1690911444,143b3a7d4ff621394184c224c315eb43,PennController,9,0,trial,NULL,PennController,9,_Header_,End,1690910962839,1,The stains and the scissors,theBPand,1,TRUE,FALSE,TRUE,NULL
1690911444,143b3a7d4ff621394184c224c315eb43,PennController,9,0,trial,NULL,TextInput,answer,EnterReturn,were on her mind,1690910977425,1,The stains and the scissors,theBPand,1,TRUE,FALSE,TRUE,NULL
1690911444,143b3a7d4ff621394184c224c315eb43,PennController,9,0,trial,NULL,PennController,9,_Trial_,End,1690910977425,1,The stains and the scissors,theBPand,1,TRUE,FALSE,TRUE,NULL
# 16. FillerType.
# 17. ItemNumber.
# 18. Comments.
1690911444,143b3a7d4ff621394184c224c315eb43,PennController,93,0,filler,NULL,PennController,93,_Trial_,Start,1690910977426,1,If a portal to the Dune universe would open today%2C,filler,if,53,NULL
1690911444,143b3a7d4ff621394184c224c315eb43,PennController,93,0,filler,NULL,PennController,93,_Header_,Start,1690910977426,1,If a portal to the Dune universe would open today%2C,filler,if,53,NULL
1690911444,143b3a7d4ff621394184c224c315eb43,PennController,93,0,filler,NULL,PennController,93,_Header_,End,1690910977426,1,If a portal to the Dune universe would open today%2C,filler,if,53,NULL
1690911444,143b3a7d4ff621394184c224c315eb43,PennController,93,0,filler,NULL,PennController,93,_Trial_,End,1690911002936,1,If a portal to the Dune universe would open today%2C,filler,if,53,NULL
1690911444,143b3a7d4ff621394184c224c315eb43,PennController,44,0,filler,NULL,PennController,44,_Trial_,Start,1690911002937,1,The tree that shaded the picnic area,filler,rc,4,NULL
1690911444,143b3a7d4ff621394184c224c315eb43,PennController,44,0,filler,NULL,PennController,44,_Header_,Start,1690911002937,1,The tree that shaded the picnic area,filler,rc,4,NULL
1690911444,143b3a7d4ff621394184c224c315eb43,PennController,44,0,filler,NULL,PennController,44,_Header_,End,1690911002938,1,The tree that shaded the picnic area,filler,rc,4,NULL
1690911444,143b3a7d4ff621394184c224c315eb43,PennController,44,0,filler,NULL,TextInput,answer,EnterReturn,was cut down today,1690911011142,1,The tree that shaded the picnic area,filler,rc,4,NULL
1690911444,143b3a7d4ff621394184c224c315eb43,PennController,44,0,filler,NULL,PennController,44,_Trial_,End,1690911011143,1,The tree that shaded the picnic area,filler,rc,4,NULL
# 16. ItemNumber.
# 17. Is_definite.
# 18. Is_modified.
# 19. Is_coordinated.
# 20. Comments.
1690911444,143b3a7d4ff621394184c224c315eb43,PennController,40,0,trial,NULL,PennController,40,_Trial_,Start,1690911011144,1,Gifts and guests,BPand,32,FALSE,FALSE,TRUE,NULL
1690911444,143b3a7d4ff621394184c224c315eb43,PennController,40,0,trial,NULL,PennController,40,_Header_,Start,1690911011144,1,Gifts and guests,BPand,32,FALSE,FALSE,TRUE,NULL
1690911444,143b3a7d4ff621394184c224c315eb43,PennController,40,0,trial,NULL,PennController,40,_Header_,End,1690911011144,1,Gifts and guests,BPand,32,FALSE,FALSE,TRUE,NULL
1690911444,143b3a7d4ff621394184c224c315eb43,PennController,40,0,trial,NULL,TextInput,answer,EnterReturn,are important aspects of a good party,1690911018792,1,Gifts and guests,BPand,32,FALSE,FALSE,TRUE,NULL
1690911444,143b3a7d4ff621394184c224c315eb43,PennController,40,0,trial,NULL,PennController,40,_Trial_,End,1690911018793,1,Gifts and guests,BPand,32,FALSE,FALSE,TRUE,NULL
# 16. FillerType.
# 17. ItemNumber.
# 18. Comments.
1690911444,143b3a7d4ff621394184c224c315eb43,PennController,94,0,filler,NULL,PennController,94,_Trial_,Start,1690911018793,1,If artists from different eras collaborated with Billie Eilish%2C,filler,if,54,NULL
1690911444,143b3a7d4ff621394184c224c315eb43,PennController,94,0,filler,NULL,PennController,94,_Header_,Start,1690911018793,1,If artists from different eras collaborated with Billie Eilish%2C,filler,if,54,NULL
1690911444,143b3a7d4ff621394184c224c315eb43,PennController,94,0,filler,NULL,PennController,94,_Header_,End,1690911018794,1,If artists from different eras collaborated with Billie Eilish%2C,filler,if,54,NULL
1690911444,143b3a7d4ff621394184c224c315eb43,PennController,94,0,filler,NULL,TextInput,answer,EnterReturn,it would probably be a hi,1690911026239,1,If artists from different eras collaborated with Billie Eilish%2C,filler,if,54,NULL
1690911444,143b3a7d4ff621394184c224c315eb43,PennController,94,0,filler,NULL,PennController,94,_Trial_,End,1690911026240,1,If artists from different eras collaborated with Billie Eilish%2C,filler,if,54,NULL
1690911444,143b3a7d4ff621394184c224c315eb43,PennController,74,0,filler,NULL,PennController,74,_Trial_,Start,1690911026241,1,Which path to choose,filler,wh,34,NULL
1690911444,143b3a7d4ff621394184c224c315eb43,PennController,74,0,filler,NULL,PennController,74,_Header_,Start,1690911026241,1,Which path to choose,filler,wh,34,NULL
1690911444,143b3a7d4ff621394184c224c315eb43,PennController,74,0,filler,NULL,PennController,74,_Header_,End,1690911026241,1,Which path to choose,filler,wh,34,NULL
1690911444,143b3a7d4ff621394184c224c315eb43,PennController,74,0,filler,NULL,TextInput,answer,EnterReturn,is a question i ask myself every day,1690911032941,1,Which path to choose,filler,wh,34,NULL
1690911444,143b3a7d4ff621394184c224c315eb43,PennController,74,0,filler,NULL,PennController,74,_Trial_,End,1690911032942,1,Which path to choose,filler,wh,34,NULL
# 16. ItemNumber.
# 17. Is_definite.
# 18. Is_modified.
# 19. Is_coordinated.
# 20. Comments.
1690911444,143b3a7d4ff621394184c224c315eb43,PennController,34,0,trial,NULL,PennController,34,_Trial_,Start,1690911032943,1,The formal entrances,theAdjBP,26,TRUE,TRUE,FALSE,NULL
1690911444,143b3a7d4ff621394184c224c315eb43,PennController,34,0,trial,NULL,PennController,34,_Header_,Start,1690911032943,1,The formal entrances,theAdjBP,26,TRUE,TRUE,FALSE,NULL
1690911444,143b3a7d4ff621394184c224c315eb43,PennController,34,0,trial,NULL,PennController,34,_Header_,End,1690911032943,1,The formal entrances,theAdjBP,26,TRUE,TRUE,FALSE,NULL
1690911444,143b3a7d4ff621394184c224c315eb43,PennController,34,0,trial,NULL,TextInput,answer,EnterReturn,were decorated with flowers,1690911039938,1,The formal entrances,theAdjBP,26,TRUE,TRUE,FALSE,NULL
1690911444,143b3a7d4ff621394184c224c315eb43,PennController,34,0,trial,NULL,PennController,34,_Trial_,End,1690911039938,1,The formal entrances,theAdjBP,26,TRUE,TRUE,FALSE,NULL
# 16. FillerType.
# 17. ItemNumber.
# 18. Comments.
1690911444,143b3a7d4ff621394184c224c315eb43,PennController,86,0,filler,NULL,PennController,86,_Trial_,Start,1690911039939,1,All eager eyes%2C filled with anticipation%2C,filler,quantifier,46,NULL
1690911444,143b3a7d4ff621394184c224c315eb43,PennController,86,0,filler,NULL,PennController,86,_Header_,Start,1690911039939,1,All eager eyes%2C filled with anticipation%2C,filler,quantifier,46,NULL
1690911444,143b3a7d4ff621394184c224c315eb43,PennController,86,0,filler,NULL,PennController,86,_Header_,End,1690911039939,1,All eager eyes%2C filled with anticipation%2C,filler,quantifier,46,NULL
1690911444,143b3a7d4ff621394184c224c315eb43,PennController,86,0,filler,NULL,TextInput,answer,EnterReturn,were on the last contestantt,1690911049646,1,All eager eyes%2C filled with anticipation%2C,filler,quantifier,46,NULL
1690911444,143b3a7d4ff621394184c224c315eb43,PennController,86,0,filler,NULL,PennController,86,_Trial_,End,1690911049647,1,All eager eyes%2C filled with anticipation%2C,filler,quantifier,46,NULL
1690911444,143b3a7d4ff621394184c224c315eb43,PennController,49,0,filler,NULL,PennController,49,_Trial_,Start,1690911049648,1,The restaurant that delighted taste buds with tantalizing flavors,filler,rc,9,NULL
1690911444,143b3a7d4ff621394184c224c315eb43,PennController,49,0,filler,NULL,PennController,49,_Header_,Start,1690911049648,1,The restaurant that delighted taste buds with tantalizing flavors,filler,rc,9,NULL
1690911444,143b3a7d4ff621394184c224c315eb43,PennController,49,0,filler,NULL,PennController,49,_Header_,End,1690911049648,1,The restaurant that delighted taste buds with tantalizing flavors,filler,rc,9,NULL
1690911444,143b3a7d4ff621394184c224c315eb43,PennController,49,0,filler,NULL,TextInput,answer,EnterReturn,has a michelin star,1690911057049,1,The restaurant that delighted taste buds with tantalizing flavors,filler,rc,9,NULL
1690911444,143b3a7d4ff621394184c224c315eb43,PennController,49,0,filler,NULL,PennController,49,_Trial_,End,1690911057050,1,The restaurant that delighted taste buds with tantalizing flavors,filler,rc,9,NULL
# 16. ItemNumber.
# 17. Is_definite.
# 18. Is_modified.
# 19. Is_coordinated.
# 20. Comments.
1690911444,143b3a7d4ff621394184c224c315eb43,PennController,28,0,trial,NULL,PennController,28,_Trial_,Start,1690911057051,1,The hungry bears and the brave deputies,theAdjBPand,20,TRUE,TRUE,TRUE,NULL
1690911444,143b3a7d4ff621394184c224c315eb43,PennController,28,0,trial,NULL,PennController,28,_Header_,Start,1690911057051,1,The hungry bears and the brave deputies,theAdjBPand,20,TRUE,TRUE,TRUE,NULL
1690911444,143b3a7d4ff621394184c224c315eb43,PennController,28,0,trial,NULL,PennController,28,_Header_,End,1690911057051,1,The hungry bears and the brave deputies,theAdjBPand,20,TRUE,TRUE,TRUE,NULL
1690911444,143b3a7d4ff621394184c224c315eb43,PennController,28,0,trial,NULL,TextInput,answer,EnterReturn,faced off in the middle of the camp today,1690911066651,1,The hungry bears and the brave deputies,theAdjBPand,20,TRUE,TRUE,TRUE,NULL
1690911444,143b3a7d4ff621394184c224c315eb43,PennController,28,0,trial,NULL,PennController,28,_Trial_,End,1690911066652,1,The hungry bears and the brave deputies,theAdjBPand,20,TRUE,TRUE,TRUE,NULL
# 16. FillerType.
# 17. ItemNumber.
# 18. Comments.
1690911444,143b3a7d4ff621394184c224c315eb43,PennController,50,0,filler,NULL,PennController,50,_Trial_,Start,1690911066653,1,The flower that bloomed like a radiant burst of sunshine,filler,rc,10,NULL
1690911444,143b3a7d4ff621394184c224c315eb43,PennController,50,0,filler,NULL,PennController,50,_Header_,Start,1690911066653,1,The flower that bloomed like a radiant burst of sunshine,filler,rc,10,NULL
1690911444,143b3a7d4ff621394184c224c315eb43,PennController,50,0,filler,NULL,PennController,50,_Header_,End,1690911066653,1,The flower that bloomed like a radiant burst of sunshine,filler,rc,10,NULL
1690911444,143b3a7d4ff621394184c224c315eb43,PennController,50,0,filler,NULL,TextInput,answer,EnterReturn,was in the field,1690911085642,1,The flower that bloomed like a radiant burst of sunshine,filler,rc,10,NULL
1690911444,143b3a7d4ff621394184c224c315eb43,PennController,50,0,filler,NULL,PennController,50,_Trial_,End,1690911085642,1,The flower that bloomed like a radiant burst of sunshine,filler,rc,10,NULL
1690911444,143b3a7d4ff621394184c224c315eb43,PennController,45,0,filler,NULL,PennController,45,_Trial_,Start,1690911085643,1,The city that never slept,filler,rc,5,NULL
1690911444,143b3a7d4ff621394184c224c315eb43,PennController,45,0,filler,NULL,PennController,45,_Header_,Start,1690911085643,1,The city that never slept,filler,rc,5,NULL
1690911444,143b3a7d4ff621394184c224c315eb43,PennController,45,0,filler,NULL,PennController,45,_Header_,End,1690911085643,1,The city that never slept,filler,rc,5,NULL
1690911444,143b3a7d4ff621394184c224c315eb43,PennController,45,0,filler,NULL,TextInput,answer,EnterReturn,was a place for all kinds of people,1690911102046,1,The city that never slept,filler,rc,5,NULL
1690911444,143b3a7d4ff621394184c224c315eb43,PennController,45,0,filler,NULL,PennController,45,_Trial_,End,1690911102047,1,The city that never slept,filler,rc,5,NULL
# 16. ItemNumber.
# 17. Is_definite.
# 18. Is_modified.
# 19. Is_coordinated.
# 20. Comments.
1690911444,143b3a7d4ff621394184c224c315eb43,PennController,16,0,trial,NULL,PennController,16,_Trial_,Start,1690911102047,1,Tulips and remarks,BPand,8,FALSE,FALSE,TRUE,NULL
1690911444,143b3a7d4ff621394184c224c315eb43,PennController,16,0,trial,NULL,PennController,16,_Header_,Start,1690911102047,1,Tulips and remarks,BPand,8,FALSE,FALSE,TRUE,NULL
1690911444,143b3a7d4ff621394184c224c315eb43,PennController,16,0,trial,NULL,PennController,16,_Header_,End,1690911102048,1,Tulips and remarks,BPand,8,FALSE,FALSE,TRUE,NULL
1690911444,143b3a7d4ff621394184c224c315eb43,PennController,16,0,trial,NULL,TextInput,answer,EnterReturn,regarding her appearance were all that he gave her,1690911118223,1,Tulips and remarks,BPand,8,FALSE,FALSE,TRUE,NULL
1690911444,143b3a7d4ff621394184c224c315eb43,PennController,16,0,trial,NULL,PennController,16,_Trial_,End,1690911118224,1,Tulips and remarks,BPand,8,FALSE,FALSE,TRUE,NULL
# 16. FillerType.
# 17. ItemNumber.
# 18. Comments.
1690911444,143b3a7d4ff621394184c224c315eb43,PennController,54,0,filler,NULL,PennController,54,_Trial_,Start,1690911118226,1,David and Rebecca,filler,name,14,NULL
1690911444,143b3a7d4ff621394184c224c315eb43,PennController,54,0,filler,NULL,PennController,54,_Header_,Start,1690911118226,1,David and Rebecca,filler,name,14,NULL
1690911444,143b3a7d4ff621394184c224c315eb43,PennController,54,0,filler,NULL,PennController,54,_Header_,End,1690911118226,1,David and Rebecca,filler,name,14,NULL
1690911444,143b3a7d4ff621394184c224c315eb43,PennController,54,0,filler,NULL,TextInput,answer,EnterReturn,are two peas in a pod,1690911121989,1,David and Rebecca,filler,name,14,NULL
1690911444,143b3a7d4ff621394184c224c315eb43,PennController,54,0,filler,NULL,PennController,54,_Trial_,End,1690911121989,1,David and Rebecca,filler,name,14,NULL
1690911444,143b3a7d4ff621394184c224c315eb43,PennController,60,0,filler,NULL,PennController,60,_Trial_,Start,1690911121990,1,The Jones twins%2C Emma and Ethan,filler,name,20,NULL
1690911444,143b3a7d4ff621394184c224c315eb43,PennController,60,0,filler,NULL,PennController,60,_Header_,Start,1690911121990,1,The Jones twins%2C Emma and Ethan,filler,name,20,NULL
1690911444,143b3a7d4ff621394184c224c315eb43,PennController,60,0,filler,NULL,PennController,60,_Header_,End,1690911121990,1,The Jones twins%2C Emma and Ethan,filler,name,20,NULL
1690911444,143b3a7d4ff621394184c224c315eb43,PennController,60,0,filler,NULL,TextInput,answer,EnterReturn,were actually not identical,1690911133616,1,The Jones twins%2C Emma and Ethan,filler,name,20,NULL
1690911444,143b3a7d4ff621394184c224c315eb43,PennController,60,0,filler,NULL,PennController,60,_Trial_,End,1690911133617,1,The Jones twins%2C Emma and Ethan,filler,name,20,NULL
# 16. ItemNumber.
# 17. Is_definite.
# 18. Is_modified.
# 19. Is_coordinated.
# 20. Comments.
1690911444,143b3a7d4ff621394184c224c315eb43,PennController,26,0,trial,NULL,PennController,26,_Trial_,Start,1690911133618,1,The evil ghosts,theAdjBP,18,TRUE,TRUE,FALSE,NULL
1690911444,143b3a7d4ff621394184c224c315eb43,PennController,26,0,trial,NULL,PennController,26,_Header_,Start,1690911133618,1,The evil ghosts,theAdjBP,18,TRUE,TRUE,FALSE,NULL
1690911444,143b3a7d4ff621394184c224c315eb43,PennController,26,0,trial,NULL,PennController,26,_Header_,End,1690911133618,1,The evil ghosts,theAdjBP,18,TRUE,TRUE,FALSE,NULL
1690911444,143b3a7d4ff621394184c224c315eb43,PennController,26,0,trial,NULL,TextInput,answer,EnterReturn,haunted the abandoned school,1690911143377,1,The evil ghosts,theAdjBP,18,TRUE,TRUE,FALSE,NULL
1690911444,143b3a7d4ff621394184c224c315eb43,PennController,26,0,trial,NULL,PennController,26,_Trial_,End,1690911143378,1,The evil ghosts,theAdjBP,18,TRUE,TRUE,FALSE,NULL
# 16. FillerType.
# 17. ItemNumber.
# 18. Comments.
1690911444,143b3a7d4ff621394184c224c315eb43,PennController,47,0,filler,NULL,PennController,47,_Trial_,Start,1690911143379,1,The computer that crashed in a spectacular display of sparks,filler,rc,7,NULL
1690911444,143b3a7d4ff621394184c224c315eb43,PennController,47,0,filler,NULL,PennController,47,_Header_,Start,1690911143379,1,The computer that crashed in a spectacular display of sparks,filler,rc,7,NULL
1690911444,143b3a7d4ff621394184c224c315eb43,PennController,47,0,filler,NULL,PennController,47,_Header_,End,1690911143379,1,The computer that crashed in a spectacular display of sparks,filler,rc,7,NULL
1690911444,143b3a7d4ff621394184c224c315eb43,PennController,47,0,filler,NULL,TextInput,answer,EnterReturn,held the only copy of my dissertation,1690911157653,1,The computer that crashed in a spectacular display of sparks,filler,rc,7,NULL
1690911444,143b3a7d4ff621394184c224c315eb43,PennController,47,0,filler,NULL,PennController,47,_Trial_,End,1690911157653,1,The computer that crashed in a spectacular display of sparks,filler,rc,7,NULL
1690911444,143b3a7d4ff621394184c224c315eb43,PennController,87,0,filler,NULL,PennController,87,_Trial_,Start,1690911157654,1,Many passionate voices%2C echoing through the room%2C,filler,quantifier,47,NULL
1690911444,143b3a7d4ff621394184c224c315eb43,PennController,87,0,filler,NULL,PennController,87,_Header_,Start,1690911157654,1,Many passionate voices%2C echoing through the room%2C,filler,quantifier,47,NULL
1690911444,143b3a7d4ff621394184c224c315eb43,PennController,87,0,filler,NULL,PennController,87,_Header_,End,1690911157654,1,Many passionate voices%2C echoing through the room%2C,filler,quantifier,47,NULL
1690911444,143b3a7d4ff621394184c224c315eb43,PennController,87,0,filler,NULL,TextInput,answer,EnterReturn,were heard from outside the hall,1690911165453,1,Many passionate voices%2C echoing through the room%2C,filler,quantifier,47,NULL
1690911444,143b3a7d4ff621394184c224c315eb43,PennController,87,0,filler,NULL,PennController,87,_Trial_,End,1690911165453,1,Many passionate voices%2C echoing through the room%2C,filler,quantifier,47,NULL
# 16. ItemNumber.
# 17. Is_definite.
# 18. Is_modified.
# 19. Is_coordinated.
# 20. Comments.
1690911444,143b3a7d4ff621394184c224c315eb43,PennController,37,0,trial,NULL,PennController,37,_Trial_,Start,1690911165454,1,Orange rectangles and heroic daughters,AdjBPand,29,FALSE,TRUE,TRUE,NULL
1690911444,143b3a7d4ff621394184c224c315eb43,PennController,37,0,trial,NULL,PennController,37,_Header_,Start,1690911165454,1,Orange rectangles and heroic daughters,AdjBPand,29,FALSE,TRUE,TRUE,NULL
1690911444,143b3a7d4ff621394184c224c315eb43,PennController,37,0,trial,NULL,PennController,37,_Header_,End,1690911165454,1,Orange rectangles and heroic daughters,AdjBPand,29,FALSE,TRUE,TRUE,NULL
1690911444,143b3a7d4ff621394184c224c315eb43,PennController,37,0,trial,NULL,PennController,37,_Trial_,End,1690911190959,1,Orange rectangles and heroic daughters,AdjBPand,29,FALSE,TRUE,TRUE,NULL
# 16. FillerType.
# 17. ItemNumber.
# 18. Comments.
1690911444,143b3a7d4ff621394184c224c315eb43,PennController,100,0,filler,NULL,PennController,100,_Trial_,Start,1690911190960,1,Were I to relive yesterday%2C,filler,if,60,NULL
1690911444,143b3a7d4ff621394184c224c315eb43,PennController,100,0,filler,NULL,PennController,100,_Header_,Start,1690911190960,1,Were I to relive yesterday%2C,filler,if,60,NULL
1690911444,143b3a7d4ff621394184c224c315eb43,PennController,100,0,filler,NULL,PennController,100,_Header_,End,1690911190960,1,Were I to relive yesterday%2C,filler,if,60,NULL
1690911444,143b3a7d4ff621394184c224c315eb43,PennController,100,0,filler,NULL,TextInput,answer,EnterReturn,i wouldnt,1690911199464,1,Were I to relive yesterday%2C,filler,if,60,NULL
1690911444,143b3a7d4ff621394184c224c315eb43,PennController,100,0,filler,NULL,TextInput,answer,EnterReturn,i would do it all the same again,1690911207726,1,Were I to relive yesterday%2C,filler,if,60,NULL
1690911444,143b3a7d4ff621394184c224c315eb43,PennController,100,0,filler,NULL,PennController,100,_Trial_,End,1690911207727,1,Were I to relive yesterday%2C,filler,if,60,NULL
1690911444,143b3a7d4ff621394184c224c315eb43,PennController,61,0,filler,NULL,PennController,61,_Trial_,Start,1690911207728,1,On the golden sandy beach,filler,adjunct,21,NULL
1690911444,143b3a7d4ff621394184c224c315eb43,PennController,61,0,filler,NULL,PennController,61,_Header_,Start,1690911207728,1,On the golden sandy beach,filler,adjunct,21,NULL
1690911444,143b3a7d4ff621394184c224c315eb43,PennController,61,0,filler,NULL,PennController,61,_Header_,End,1690911207729,1,On the golden sandy beach,filler,adjunct,21,NULL
1690911444,143b3a7d4ff621394184c224c315eb43,PennController,61,0,filler,NULL,TextInput,answer,EnterReturn,sad the young family,1690911212503,1,On the golden sandy beach,filler,adjunct,21,NULL
1690911444,143b3a7d4ff621394184c224c315eb43,PennController,61,0,filler,NULL,PennController,61,_Trial_,End,1690911212504,1,On the golden sandy beach,filler,adjunct,21,NULL
# 16. ItemNumber.
# 17. Is_definite.
# 18. Is_modified.
# 19. Is_coordinated.
# 20. Comments.
1690911444,143b3a7d4ff621394184c224c315eb43,PennController,29,0,trial,NULL,PennController,29,_Trial_,Start,1690911212506,1,Anxious boys and portable keyboards,AdjBPand,21,FALSE,TRUE,TRUE,NULL
1690911444,143b3a7d4ff621394184c224c315eb43,PennController,29,0,trial,NULL,PennController,29,_Header_,Start,1690911212506,1,Anxious boys and portable keyboards,AdjBPand,21,FALSE,TRUE,TRUE,NULL
1690911444,143b3a7d4ff621394184c224c315eb43,PennController,29,0,trial,NULL,PennController,29,_Header_,End,1690911212506,1,Anxious boys and portable keyboards,AdjBPand,21,FALSE,TRUE,TRUE,NULL
1690911444,143b3a7d4ff621394184c224c315eb43,PennController,29,0,trial,NULL,TextInput,answer,EnterReturn,actually go hand in hand,1690911226817,1,Anxious boys and portable keyboards,AdjBPand,21,FALSE,TRUE,TRUE,NULL
1690911444,143b3a7d4ff621394184c224c315eb43,PennController,29,0,trial,NULL,PennController,29,_Trial_,End,1690911226818,1,Anxious boys and portable keyboards,AdjBPand,21,FALSE,TRUE,TRUE,NULL
# 16. FillerType.
# 17. ItemNumber.
# 18. Comments.
1690911444,143b3a7d4ff621394184c224c315eb43,PennController,88,0,filler,NULL,PennController,88,_Trial_,Start,1690911226819,1,Several blissful moments%2C spent in each other's arms%2C,filler,quantifier,48,NULL
1690911444,143b3a7d4ff621394184c224c315eb43,PennController,88,0,filler,NULL,PennController,88,_Header_,Start,1690911226819,1,Several blissful moments%2C spent in each other's arms%2C,filler,quantifier,48,NULL
1690911444,143b3a7d4ff621394184c224c315eb43,PennController,88,0,filler,NULL,PennController,88,_Header_,End,1690911226819,1,Several blissful moments%2C spent in each other's arms%2C,filler,quantifier,48,NULL
1690911444,143b3a7d4ff621394184c224c315eb43,PennController,88,0,filler,NULL,TextInput,answer,EnterReturn,were recollected that day,1690911250870,1,Several blissful moments%2C spent in each other's arms%2C,filler,quantifier,48,NULL
1690911444,143b3a7d4ff621394184c224c315eb43,PennController,88,0,filler,NULL,PennController,88,_Trial_,End,1690911250871,1,Several blissful moments%2C spent in each other's arms%2C,filler,quantifier,48,NULL
1690911444,143b3a7d4ff621394184c224c315eb43,PennController,73,0,filler,NULL,PennController,73,_Trial_,Start,1690911250872,1,When the clock strikes,filler,wh,33,NULL
1690911444,143b3a7d4ff621394184c224c315eb43,PennController,73,0,filler,NULL,PennController,73,_Header_,Start,1690911250872,1,When the clock strikes,filler,wh,33,NULL
1690911444,143b3a7d4ff621394184c224c315eb43,PennController,73,0,filler,NULL,PennController,73,_Header_,End,1690911250872,1,When the clock strikes,filler,wh,33,NULL
1690911444,143b3a7d4ff621394184c224c315eb43,PennController,73,0,filler,NULL,TextInput,answer,EnterReturn,midnight it's time for bed,1690911259614,1,When the clock strikes,filler,wh,33,NULL
1690911444,143b3a7d4ff621394184c224c315eb43,PennController,73,0,filler,NULL,PennController,73,_Trial_,End,1690911259614,1,When the clock strikes,filler,wh,33,NULL
# 16. ItemNumber.
# 17. Is_definite.
# 18. Is_modified.
# 19. Is_coordinated.
# 20. Comments.
1690911444,143b3a7d4ff621394184c224c315eb43,PennController,23,0,trial,NULL,PennController,23,_Trial_,Start,1690911259616,1,Drippy hoses,AdjBP,15,FALSE,TRUE,FALSE,NULL
1690911444,143b3a7d4ff621394184c224c315eb43,PennController,23,0,trial,NULL,PennController,23,_Header_,Start,1690911259616,1,Drippy hoses,AdjBP,15,FALSE,TRUE,FALSE,NULL
1690911444,143b3a7d4ff621394184c224c315eb43,PennController,23,0,trial,NULL,PennController,23,_Header_,End,1690911259616,1,Drippy hoses,AdjBP,15,FALSE,TRUE,FALSE,NULL
1690911444,143b3a7d4ff621394184c224c315eb43,PennController,23,0,trial,NULL,TextInput,answer,EnterReturn,are super annoying,1690911265798,1,Drippy hoses,AdjBP,15,FALSE,TRUE,FALSE,NULL
1690911444,143b3a7d4ff621394184c224c315eb43,PennController,23,0,trial,NULL,PennController,23,_Trial_,End,1690911265799,1,Drippy hoses,AdjBP,15,FALSE,TRUE,FALSE,NULL
# 16. FillerType.
# 17. ItemNumber.
# 18. Comments.
1690911444,143b3a7d4ff621394184c224c315eb43,PennController,62,0,filler,NULL,PennController,62,_Trial_,Start,1690911265800,1,Amidst the vibrant city lights,filler,adjunct,22,NULL
1690911444,143b3a7d4ff621394184c224c315eb43,PennController,62,0,filler,NULL,PennController,62,_Header_,Start,1690911265800,1,Amidst the vibrant city lights,filler,adjunct,22,NULL
1690911444,143b3a7d4ff621394184c224c315eb43,PennController,62,0,filler,NULL,PennController,62,_Header_,End,1690911265800,1,Amidst the vibrant city lights,filler,adjunct,22,NULL
1690911444,143b3a7d4ff621394184c224c315eb43,PennController,62,0,filler,NULL,TextInput,answer,EnterReturn,i saw her,1690911284949,1,Amidst the vibrant city lights,filler,adjunct,22,NULL
1690911444,143b3a7d4ff621394184c224c315eb43,PennController,62,0,filler,NULL,PennController,62,_Trial_,End,1690911291306,1,Amidst the vibrant city lights,filler,adjunct,22,NULL
1690911444,143b3a7d4ff621394184c224c315eb43,PennController,72,0,filler,NULL,PennController,72,_Trial_,Start,1690911291310,1,Why the stars shine,filler,wh,32,NULL
1690911444,143b3a7d4ff621394184c224c315eb43,PennController,72,0,filler,NULL,PennController,72,_Header_,Start,1690911291310,1,Why the stars shine,filler,wh,32,NULL
1690911444,143b3a7d4ff621394184c224c315eb43,PennController,72,0,filler,NULL,PennController,72,_Header_,End,1690911291310,1,Why the stars shine,filler,wh,32,NULL
1690911444,143b3a7d4ff621394184c224c315eb43,PennController,72,0,filler,NULL,TextInput,answer,EnterReturn,is a question i asked as a child,1690911300628,1,Why the stars shine,filler,wh,32,NULL
1690911444,143b3a7d4ff621394184c224c315eb43,PennController,72,0,filler,NULL,PennController,72,_Trial_,End,1690911300629,1,Why the stars shine,filler,wh,32,NULL
# 16. ItemNumber.
# 17. Is_definite.
# 18. Is_modified.
# 19. Is_coordinated.
# 20. Comments.
1690911444,143b3a7d4ff621394184c224c315eb43,PennController,17,0,trial,NULL,PennController,17,_Trial_,Start,1690911300629,1,The sisters and the brides,theBPand,9,TRUE,FALSE,TRUE,NULL
1690911444,143b3a7d4ff621394184c224c315eb43,PennController,17,0,trial,NULL,PennController,17,_Header_,Start,1690911300629,1,The sisters and the brides,theBPand,9,TRUE,FALSE,TRUE,NULL
1690911444,143b3a7d4ff621394184c224c315eb43,PennController,17,0,trial,NULL,PennController,17,_Header_,End,1690911300629,1,The sisters and the brides,theBPand,9,TRUE,FALSE,TRUE,NULL
1690911444,143b3a7d4ff621394184c224c315eb43,PennController,17,0,trial,NULL,TextInput,answer,EnterReturn,knew each other from long ago,1690911307012,1,The sisters and the brides,theBPand,9,TRUE,FALSE,TRUE,NULL
1690911444,143b3a7d4ff621394184c224c315eb43,PennController,17,0,trial,NULL,PennController,17,_Trial_,End,1690911307014,1,The sisters and the brides,theBPand,9,TRUE,FALSE,TRUE,NULL
# 16. FillerType.
# 17. ItemNumber.
# 18. Comments.
1690911444,143b3a7d4ff621394184c224c315eb43,PennController,76,0,filler,NULL,PennController,76,_Trial_,Start,1690911307015,1,Whom,filler,wh,36,NULL
1690911444,143b3a7d4ff621394184c224c315eb43,PennController,76,0,filler,NULL,PennController,76,_Header_,Start,1690911307015,1,Whom,filler,wh,36,NULL
1690911444,143b3a7d4ff621394184c224c315eb43,PennController,76,0,filler,NULL,PennController,76,_Header_,End,1690911307015,1,Whom,filler,wh,36,NULL
1690911444,143b3a7d4ff621394184c224c315eb43,PennController,76,0,filler,NULL,TextInput,answer,EnterReturn,does it concern,1690911312751,1,Whom,filler,wh,36,NULL
1690911444,143b3a7d4ff621394184c224c315eb43,PennController,76,0,filler,NULL,PennController,76,_Trial_,End,1690911312752,1,Whom,filler,wh,36,NULL
1690911444,143b3a7d4ff621394184c224c315eb43,PennController,70,0,filler,NULL,PennController,70,_Trial_,Start,1690911312753,1,Atop the rugged cliffside lookout,filler,adjunct,30,NULL
1690911444,143b3a7d4ff621394184c224c315eb43,PennController,70,0,filler,NULL,PennController,70,_Header_,Start,1690911312753,1,Atop the rugged cliffside lookout,filler,adjunct,30,NULL
1690911444,143b3a7d4ff621394184c224c315eb43,PennController,70,0,filler,NULL,PennController,70,_Header_,End,1690911312753,1,Atop the rugged cliffside lookout,filler,adjunct,30,NULL
1690911444,143b3a7d4ff621394184c224c315eb43,PennController,70,0,filler,NULL,TextInput,answer,EnterReturn,sits a fortress,1690911320243,1,Atop the rugged cliffside lookout,filler,adjunct,30,NULL
1690911444,143b3a7d4ff621394184c224c315eb43,PennController,70,0,filler,NULL,PennController,70,_Trial_,End,1690911320243,1,Atop the rugged cliffside lookout,filler,adjunct,30,NULL
# 16. ItemNumber.
# 17. Is_definite.
# 18. Is_modified.
# 19. Is_coordinated.
# 20. Comments.
1690911444,143b3a7d4ff621394184c224c315eb43,PennController,27,0,trial,NULL,PennController,27,_Trial_,Start,1690911320244,1,The artists,theBP,19,TRUE,FALSE,FALSE,NULL
1690911444,143b3a7d4ff621394184c224c315eb43,PennController,27,0,trial,NULL,PennController,27,_Header_,Start,1690911320244,1,The artists,theBP,19,TRUE,FALSE,FALSE,NULL
1690911444,143b3a7d4ff621394184c224c315eb43,PennController,27,0,trial,NULL,PennController,27,_Header_,End,1690911320244,1,The artists,theBP,19,TRUE,FALSE,FALSE,NULL
1690911444,143b3a7d4ff621394184c224c315eb43,PennController,27,0,trial,NULL,TextInput,answer,EnterReturn,enjoyed each others company,1690911330529,1,The artists,theBP,19,TRUE,FALSE,FALSE,NULL
1690911444,143b3a7d4ff621394184c224c315eb43,PennController,27,0,trial,NULL,PennController,27,_Trial_,End,1690911330530,1,The artists,theBP,19,TRUE,FALSE,FALSE,NULL
# 16. FillerType.
# 17. ItemNumber.
# 18. Comments.
1690911444,143b3a7d4ff621394184c224c315eb43,PennController,68,0,filler,NULL,PennController,68,_Trial_,Start,1690911330531,1,Within the tranquil coastal village,filler,adjunct,28,NULL
1690911444,143b3a7d4ff621394184c224c315eb43,PennController,68,0,filler,NULL,PennController,68,_Header_,Start,1690911330531,1,Within the tranquil coastal village,filler,adjunct,28,NULL
1690911444,143b3a7d4ff621394184c224c315eb43,PennController,68,0,filler,NULL,PennController,68,_Header_,End,1690911330531,1,Within the tranquil coastal village,filler,adjunct,28,NULL
1690911444,143b3a7d4ff621394184c224c315eb43,PennController,68,0,filler,NULL,PennController,68,_Trial_,End,1690911356036,1,Within the tranquil coastal village,filler,adjunct,28,NULL
1690911444,143b3a7d4ff621394184c224c315eb43,PennController,91,0,filler,NULL,PennController,91,_Trial_,Start,1690911356038,1,If time and money were no obstacles%2C,filler,if,51,NULL
1690911444,143b3a7d4ff621394184c224c315eb43,PennController,91,0,filler,NULL,PennController,91,_Header_,Start,1690911356038,1,If time and money were no obstacles%2C,filler,if,51,NULL
1690911444,143b3a7d4ff621394184c224c315eb43,PennController,91,0,filler,NULL,PennController,91,_Header_,End,1690911356038,1,If time and money were no obstacles%2C,filler,if,51,NULL
1690911444,143b3a7d4ff621394184c224c315eb43,PennController,91,0,filler,NULL,TextInput,answer,EnterReturn,we could do anything we want,1690911362697,1,If time and money were no obstacles%2C,filler,if,51,NULL
1690911444,143b3a7d4ff621394184c224c315eb43,PennController,91,0,filler,NULL,PennController,91,_Trial_,End,1690911362698,1,If time and money were no obstacles%2C,filler,if,51,NULL
# 16. ItemNumber.
# 17. Is_definite.
# 18. Is_modified.
# 19. Is_coordinated.
# 20. Comments.
1690911444,143b3a7d4ff621394184c224c315eb43,PennController,20,0,trial,NULL,PennController,20,_Trial_,Start,1690911362699,1,The dainty spoons and the bold strategies,theAdjBPand,12,TRUE,TRUE,TRUE,NULL
1690911444,143b3a7d4ff621394184c224c315eb43,PennController,20,0,trial,NULL,PennController,20,_Header_,Start,1690911362699,1,The dainty spoons and the bold strategies,theAdjBPand,12,TRUE,TRUE,TRUE,NULL
1690911444,143b3a7d4ff621394184c224c315eb43,PennController,20,0,trial,NULL,PennController,20,_Header_,End,1690911362699,1,The dainty spoons and the bold strategies,theAdjBPand,12,TRUE,TRUE,TRUE,NULL
1690911444,143b3a7d4ff621394184c224c315eb43,PennController,20,0,trial,NULL,TextInput,answer,EnterReturn,were thrown aboutt in the meeting,1690911383671,1,The dainty spoons and the bold strategies,theAdjBPand,12,TRUE,TRUE,TRUE,NULL
1690911444,143b3a7d4ff621394184c224c315eb43,PennController,20,0,trial,NULL,PennController,20,_Trial_,End,1690911383672,1,The dainty spoons and the bold strategies,theAdjBPand,12,TRUE,TRUE,TRUE,NULL
# 16. FillerType.
# 17. ItemNumber.
# 18. Comments.
1690911444,143b3a7d4ff621394184c224c315eb43,PennController,55,0,filler,NULL,PennController,55,_Trial_,Start,1690911383673,1,Mr. Johnson and his loyal assistant%2C Ms. Rodriguez,filler,name,15,NULL
1690911444,143b3a7d4ff621394184c224c315eb43,PennController,55,0,filler,NULL,PennController,55,_Header_,Start,1690911383673,1,Mr. Johnson and his loyal assistant%2C Ms. Rodriguez,filler,name,15,NULL
1690911444,143b3a7d4ff621394184c224c315eb43,PennController,55,0,filler,NULL,PennController,55,_Header_,End,1690911383673,1,Mr. Johnson and his loyal assistant%2C Ms. Rodriguez,filler,name,15,NULL
1690911444,143b3a7d4ff621394184c224c315eb43,PennController,55,0,filler,NULL,TextInput,answer,EnterReturn,were a remarkable team,1690911394983,1,Mr. Johnson and his loyal assistant%2C Ms. Rodriguez,filler,name,15,NULL
1690911444,143b3a7d4ff621394184c224c315eb43,PennController,55,0,filler,NULL,PennController,55,_Trial_,End,1690911394984,1,Mr. Johnson and his loyal assistant%2C Ms. Rodriguez,filler,name,15,NULL
1690911444,143b3a7d4ff621394184c224c315eb43,PennController,89,0,filler,NULL,PennController,89,_Trial_,Start,1690911394984,1,Few precious chances%2C which had eluded them for so long%2C,filler,quantifier,49,NULL
1690911444,143b3a7d4ff621394184c224c315eb43,PennController,89,0,filler,NULL,PennController,89,_Header_,Start,1690911394984,1,Few precious chances%2C which had eluded them for so long%2C,filler,quantifier,49,NULL
1690911444,143b3a7d4ff621394184c224c315eb43,PennController,89,0,filler,NULL,PennController,89,_Header_,End,1690911394985,1,Few precious chances%2C which had eluded them for so long%2C,filler,quantifier,49,NULL
1690911444,143b3a7d4ff621394184c224c315eb43,PennController,89,0,filler,NULL,TextInput,answer,EnterReturn,were offered to them,1690911406560,1,Few precious chances%2C which had eluded them for so long%2C,filler,quantifier,49,NULL
1690911444,143b3a7d4ff621394184c224c315eb43,PennController,89,0,filler,NULL,PennController,89,_Trial_,End,1690911406561,1,Few precious chances%2C which had eluded them for so long%2C,filler,quantifier,49,NULL
# 16. ItemNumber.
# 17. Is_definite.
# 18. Is_modified.
# 19. Is_coordinated.
# 20. Comments.
1690911444,143b3a7d4ff621394184c224c315eb43,PennController,31,0,trial,NULL,PennController,31,_Trial_,Start,1690911406561,1,Homemade pizzas,AdjBP,23,FALSE,TRUE,FALSE,NULL
1690911444,143b3a7d4ff621394184c224c315eb43,PennController,31,0,trial,NULL,PennController,31,_Header_,Start,1690911406561,1,Homemade pizzas,AdjBP,23,FALSE,TRUE,FALSE,NULL
1690911444,143b3a7d4ff621394184c224c315eb43,PennController,31,0,trial,NULL,PennController,31,_Header_,End,1690911406562,1,Homemade pizzas,AdjBP,23,FALSE,TRUE,FALSE,NULL
1690911444,143b3a7d4ff621394184c224c315eb43,PennController,31,0,trial,NULL,TextInput,answer,EnterReturn,are the best kind of pizza,1690911410986,1,Homemade pizzas,AdjBP,23,FALSE,TRUE,FALSE,NULL
1690911444,143b3a7d4ff621394184c224c315eb43,PennController,31,0,trial,NULL,PennController,31,_Trial_,End,1690911410987,1,Homemade pizzas,AdjBP,23,FALSE,TRUE,FALSE,NULL
# 16. FillerType.
# 17. ItemNumber.
# 18. Comments.
1690911444,143b3a7d4ff621394184c224c315eb43,PennController,57,0,filler,NULL,PennController,57,_Trial_,Start,1690911410989,1,Professor Thompson and his brilliant student%2C Alice,filler,name,17,NULL
1690911444,143b3a7d4ff621394184c224c315eb43,PennController,57,0,filler,NULL,PennController,57,_Header_,Start,1690911410989,1,Professor Thompson and his brilliant student%2C Alice,filler,name,17,NULL
